time,.header.seq,.header.stamp.secs,.header.stamp.nsecs,.header.frame_id,.orientation.x,.orientation.y,.orientation.z,.orientation.w,.orientation_covariance,.angular_velocity.x,.angular_velocity.y,.angular_velocity.z,.angular_velocity_covariance,.linear_acceleration.x,.linear_acceleration.y,.linear_acceleration.z,.linear_acceleration_covariance
2019/09/05/07:27:24.065586,6881,1567636044,65078045,gx5_link,-0.134591028094,0.106819681823,0.778302788734,0.603920221329,"(0.01, 0.0, 0.0, 0.0, 0.01, 0.0, 0.0, 0.0, 0.01)",0.000906650209799,-0.00399910844862,0.00110162771307,"(0.01, 0.0, 0.0, 0.0, 0.01, 0.0, 0.0, 0.0, 0.01)",0.140859123571,-3.30937729418,-9.22669521511,"(0.01, 0.0, 0.0, 0.0, 0.01, 0.0, 0.0, 0.0, 0.01)"
2019/09/05/07:27:24.077600,6882,1567636044,77129522,gx5_link,-0.134587809443,0.106820166111,0.778303980827,0.603919327259,"(0.01, 0.0, 0.0, 0.0, 0.01, 0.0, 0.0, 0.0, 0.01)",-0.000713239307515,-0.00242564850487,0.00116464146413,"(0.01, 0.0, 0.0, 0.0, 0.01, 0.0, 0.0, 0.0, 0.01)",0.142578460788,-3.30772896409,-9.22623386979,"(0.01, 0.0, 0.0, 0.0, 0.01, 0.0, 0.0, 0.0, 0.01)"
2019/09/05/07:27:24.095543,6883,1567636044,95124779,gx5_link,-0.134590700269,0.106814064085,0.778309106827,0.603913068771,"(0.01, 0.0, 0.0, 0.0, 0.01, 0.0, 0.0, 0.0, 0.01)",-0.00080970081035,-0.00446513667703,0.000613742740825,"(0.01, 0.0, 0.0, 0.0, 0.01, 0.0, 0.0, 0.0, 0.01)",0.1406019009,-3.30565466434,-9.226296435,"(0.01, 0.0, 0.0, 0.0, 0.01, 0.0, 0.0, 0.0, 0.01)"
2019/09/05/07:27:24.107621,6884,1567636044,107115450,gx5_link,-0.134586125612,0.106819629669,0.778305590153,0.603917717934,"(0.01, 0.0, 0.0, 0.0, 0.01, 0.0, 0.0, 0.0, 0.01)",-0.000218800152652,-0.00265193567611,0.00146763189696,"(0.01, 0.0, 0.0, 0.0, 0.01, 0.0, 0.0, 0.0, 0.01)",0.141347749801,-3.30366690338,-9.22453349948,"(0.01, 0.0, 0.0, 0.0, 0.01, 0.0, 0.0, 0.0, 0.01)"
2019/09/05/07:27:24.125575,6885,1567636044,125097396,gx5_link,-0.134582087398,0.106821157038,0.778306782246,0.603916704655,"(0.01, 0.0, 0.0, 0.0, 0.01, 0.0, 0.0, 0.0, 0.01)",-0.00026222053566,-0.00341378082521,0.00149240600877,"(0.01, 0.0, 0.0, 0.0, 0.01, 0.0, 0.0, 0.0, 0.01)",0.143013183,-3.30797483951,-9.22712206185,"(0.01, 0.0, 0.0, 0.0, 0.01, 0.0, 0.0, 0.0, 0.01)"
2019/09/05/07:27:24.137510,6886,1567636044,137080544,gx5_link,-0.134585425258,0.106820777059,0.778304934502,0.603918492794,"(0.01, 0.0, 0.0, 0.0, 0.01, 0.0, 0.0, 0.0, 0.01)",0.000919045589399,-0.00365347252227,0.00115312135313,"(0.01, 0.0, 0.0, 0.0, 0.01, 0.0, 0.0, 0.0, 0.01)",0.143523124158,-3.30807161093,-9.22654435694,"(0.01, 0.0, 0.0, 0.0, 0.01, 0.0, 0.0, 0.0, 0.01)"
2019/09/05/07:27:24.155575,6887,1567636044,155096773,gx5_link,-0.134582236409,0.106821417809,0.778304696083,0.603919386864,"(0.01, 0.0, 0.0, 0.0, 0.01, 0.0, 0.0, 0.0, 0.01)",5.82146458328e-05,-0.00286360247992,0.00161112949718,"(0.01, 0.0, 0.0, 0.0, 0.01, 0.0, 0.0, 0.0, 0.01)",0.143757670596,-3.3070080024,-9.22509892523,"(0.01, 0.0, 0.0, 0.0, 0.01, 0.0, 0.0, 0.0, 0.01)"
2019/09/05/07:27:24.168734,6888,1567636044,168241254,gx5_link,-0.134579569101,0.106814019382,0.778306007385,0.603919565678,"(0.01, 0.0, 0.0, 0.0, 0.01, 0.0, 0.0, 0.0, 0.01)",7.69949110691e-05,-0.00420582201332,0.00181491533294,"(0.01, 0.0, 0.0, 0.0, 0.01, 0.0, 0.0, 0.0, 0.01)",0.141110425936,-3.30417619586,-9.22558365941,"(0.01, 0.0, 0.0, 0.0, 0.01, 0.0, 0.0, 0.0, 0.01)"
2019/09/05/07:27:24.185636,6889,1567636044,185085901,gx5_link,-0.134573802352,0.106816455722,0.778305590153,0.603920996189,"(0.01, 0.0, 0.0, 0.0, 0.01, 0.0, 0.0, 0.0, 0.01)",-0.000225418902119,-0.00320693710819,0.00176715047564,"(0.01, 0.0, 0.0, 0.0, 0.01, 0.0, 0.0, 0.0, 0.01)",0.142710041413,-3.30408527166,-9.22445514679,"(0.01, 0.0, 0.0, 0.0, 0.01, 0.0, 0.0, 0.0, 0.01)"
2019/09/05/07:27:24.197504,6890,1567636044,197031940,gx5_link,-0.134576976299,0.106816582382,0.778299093246,0.603928625584,"(0.01, 0.0, 0.0, 0.0, 0.01, 0.0, 0.0, 0.0, 0.01)",0.000661150959786,-0.00345460698009,0.00213724095374,"(0.01, 0.0, 0.0, 0.0, 0.01, 0.0, 0.0, 0.0, 0.01)",0.144832982691,-3.30568097681,-9.22505682528,"(0.01, 0.0, 0.0, 0.0, 0.01, 0.0, 0.0, 0.0, 0.01)"
2019/09/05/07:27:24.215524,6891,1567636044,215051106,gx5_link,-0.134578868747,0.106817163527,0.778304517269,0.603921055794,"(0.01, 0.0, 0.0, 0.0, 0.01, 0.0, 0.0, 0.0, 0.01)",0.000962083169725,-0.00374631327577,0.00101948482916,"(0.01, 0.0, 0.0, 0.0, 0.01, 0.0, 0.0, 0.0, 0.01)",0.143789857691,-3.30741847694,-9.22652096808,"(0.01, 0.0, 0.0, 0.0, 0.01, 0.0, 0.0, 0.0, 0.01)"
2019/09/05/07:27:24.227486,6892,1567636044,227107258,gx5_link,-0.13457980752,0.106813021004,0.77830684185,0.603918731213,"(0.01, 0.0, 0.0, 0.0, 0.01, 0.0, 0.0, 0.0, 0.01)",-0.000131303037051,-0.00302113685757,0.000860278611071,"(0.01, 0.0, 0.0, 0.0, 0.01, 0.0, 0.0, 0.0, 0.01)",0.142669247948,-3.30619231582,-9.22576550782,"(0.01, 0.0, 0.0, 0.0, 0.01, 0.0, 0.0, 0.0, 0.01)"
2019/09/05/07:27:24.239889,6893,1567636044,239379886,gx5_link,-0.134580552578,0.106814533472,0.778308153152,0.603916525841,"(0.01, 0.0, 0.0, 0.0, 0.01, 0.0, 0.0, 0.0, 0.01)",0.000611610303167,-0.00312923197635,0.00189249461982,"(0.01, 0.0, 0.0, 0.0, 0.01, 0.0, 0.0, 0.0, 0.01)",0.146003531311,-3.30847799242,-9.22741032958,"(0.01, 0.0, 0.0, 0.0, 0.01, 0.0, 0.0, 0.0, 0.01)"
2019/09/05/07:27:24.257485,6894,1567636044,257032518,gx5_link,-0.134574741125,0.10681412369,0.77831029892,0.603915095329,"(0.01, 0.0, 0.0, 0.0, 0.01, 0.0, 0.0, 0.0, 0.01)",-0.000276405800832,-0.00300527899526,0.00136743381154,"(0.01, 0.0, 0.0, 0.0, 0.01, 0.0, 0.0, 0.0, 0.01)",0.143520428957,-3.30857856452,-9.22569300234,"(0.01, 0.0, 0.0, 0.0, 0.01, 0.0, 0.0, 0.0, 0.01)"
2019/09/05/07:27:24.269617,6895,1567636044,269070410,gx5_link,-0.134572714567,0.106811992824,0.778312265873,0.603913426399,"(0.01, 0.0, 0.0, 0.0, 0.01, 0.0, 0.0, 0.0, 0.01)",-0.000366896012565,-0.00311723630875,0.00167431018781,"(0.01, 0.0, 0.0, 0.0, 0.01, 0.0, 0.0, 0.0, 0.01)",0.142261724425,-3.30697028786,-9.22366577268,"(0.01, 0.0, 0.0, 0.0, 0.01, 0.0, 0.0, 0.0, 0.01)"
2019/09/05/07:27:24.287605,6896,1567636044,287124360,gx5_link,-0.134580507874,0.106811545789,0.778312563896,0.603911340237,"(0.01, 0.0, 0.0, 0.0, 0.01, 0.0, 0.0, 0.0, 0.01)",0.00121329177637,-0.00366741395555,0.00108619767707,"(0.01, 0.0, 0.0, 0.0, 0.01, 0.0, 0.0, 0.0, 0.01)",0.138901676768,-3.3083610481,-9.2237856406,"(0.01, 0.0, 0.0, 0.0, 0.01, 0.0, 0.0, 0.0, 0.01)"
2019/09/05/07:27:24.299485,6897,1567636044,299064512,gx5_link,-0.13457390666,0.10680861026,0.778315663338,0.603909313679,"(0.01, 0.0, 0.0, 0.0, 0.01, 0.0, 0.0, 0.0, 0.01)",-0.000634008727502,-0.00316211394966,0.000972718815319,"(0.01, 0.0, 0.0, 0.0, 0.01, 0.0, 0.0, 0.0, 0.01)",0.141257501682,-3.30544562638,-9.2239131099,"(0.01, 0.0, 0.0, 0.0, 0.01, 0.0, 0.0, 0.0, 0.01)"
2019/09/05/07:27:24.317457,6898,1567636044,317037521,gx5_link,-0.134573817253,0.106810927391,0.778322160244,0.603900671005,"(0.01, 0.0, 0.0, 0.0, 0.01, 0.0, 0.0, 0.0, 0.01)",0.000133089662995,-0.00328467669897,0.000668777734973,"(0.01, 0.0, 0.0, 0.0, 0.01, 0.0, 0.0, 0.0, 0.01)",0.141283951197,-3.30671447217,-9.22426511228,"(0.01, 0.0, 0.0, 0.0, 0.01, 0.0, 0.0, 0.0, 0.01)"
2019/09/05/07:27:24.329491,6899,1567636044,329098973,gx5_link,-0.134575486183,0.106806986034,0.778325796127,0.603896200657,"(0.01, 0.0, 0.0, 0.0, 0.01, 0.0, 0.0, 0.0, 0.01)",0.000348092231434,-0.00388729036786,0.00155517400708,"(0.01, 0.0, 0.0, 0.0, 0.01, 0.0, 0.0, 0.0, 0.01)",0.142272130642,-3.30530792445,-9.22395813346,"(0.01, 0.0, 0.0, 0.0, 0.01, 0.0, 0.0, 0.0, 0.01)"
2019/09/05/07:27:24.347456,6900,1567636044,347039573,gx5_link,-0.134571328759,0.106805682182,0.778330743313,0.603890955448,"(0.01, 0.0, 0.0, 0.0, 0.01, 0.0, 0.0, 0.0, 0.01)",-0.000358897028491,-0.003010928398,0.000246379175223,"(0.01, 0.0, 0.0, 0.0, 0.01, 0.0, 0.0, 0.0, 0.01)",0.140310143111,-3.30669546872,-9.22291148186,"(0.01, 0.0, 0.0, 0.0, 0.01, 0.0, 0.0, 0.0, 0.01)"
2019/09/05/07:27:24.365451,6901,1567636044,365023718,gx5_link,-0.134567499161,0.106806315482,0.778329253197,0.603893756866,"(0.01, 0.0, 0.0, 0.0, 0.01, 0.0, 0.0, 0.0, 0.01)",-0.000191404280486,-0.00259926589206,0.00150327628944,"(0.01, 0.0, 0.0, 0.0, 0.01, 0.0, 0.0, 0.0, 0.01)",0.142951257331,-3.30734597147,-9.22305415392,"(0.01, 0.0, 0.0, 0.0, 0.01, 0.0, 0.0, 0.0, 0.01)"
2019/09/05/07:27:24.375078,6902,1567636044,371144165,gx5_link,-0.134570494294,0.10680758208,0.778332293034,0.603888869286,"(0.01, 0.0, 0.0, 0.0, 0.01, 0.0, 0.0, 0.0, 0.01)",0.000904620043002,-0.00294233555906,0.000583148095757,"(0.01, 0.0, 0.0, 0.0, 0.01, 0.0, 0.0, 0.0, 0.01)",0.1439305015,-3.30707232177,-9.2221969521,"(0.01, 0.0, 0.0, 0.0, 0.01, 0.0, 0.0, 0.0, 0.01)"
2019/09/05/07:27:24.389497,6903,1567636044,389068892,gx5_link,-0.13457468152,0.106805607677,0.778334975243,0.603884875774,"(0.01, 0.0, 0.0, 0.0, 0.01, 0.0, 0.0, 0.0, 0.01)",0.00132631056476,-0.00413470901549,0.00121180724818,"(0.01, 0.0, 0.0, 0.0, 0.01, 0.0, 0.0, 0.0, 0.01)",0.141082880069,-3.30990880609,-9.22458203137,"(0.01, 0.0, 0.0, 0.0, 0.01, 0.0, 0.0, 0.0, 0.01)"
2019/09/05/07:27:24.401483,6904,1567636044,401071937,gx5_link,-0.134578168392,0.106807358563,0.778337478638,0.60388058424,"(0.01, 0.0, 0.0, 0.0, 0.01, 0.0, 0.0, 0.0, 0.01)",0.00121853570454,-0.00274276710115,0.00100629555527,"(0.01, 0.0, 0.0, 0.0, 0.01, 0.0, 0.0, 0.0, 0.01)",0.142622835673,-3.30962550849,-9.22723842144,"(0.01, 0.0, 0.0, 0.0, 0.01, 0.0, 0.0, 0.0, 0.01)"
2019/09/05/07:27:24.419441,6905,1567636044,419048746,gx5_link,-0.134577214718,0.106810323894,0.778331756592,0.603887557983,"(0.01, 0.0, 0.0, 0.0, 0.01, 0.0, 0.0, 0.0, 0.01)",0.000330299517373,-0.00276983832009,0.00260791205801,"(0.01, 0.0, 0.0, 0.0, 0.01, 0.0, 0.0, 0.0, 0.01)",0.142546721371,-3.30870281786,-9.22795938313,"(0.01, 0.0, 0.0, 0.0, 0.01, 0.0, 0.0, 0.0, 0.01)"
2019/09/05/07:27:24.431461,6906,1567636044,431057291,gx5_link,-0.13457916677,0.106814369559,0.778330266476,0.603888332844,"(0.01, 0.0, 0.0, 0.0, 0.01, 0.0, 0.0, 0.0, 0.01)",0.00184903026093,-0.0026837028563,0.00248933630064,"(0.01, 0.0, 0.0, 0.0, 0.01, 0.0, 0.0, 0.0, 0.01)",0.143749438813,-3.30674575478,-9.22526557088,"(0.01, 0.0, 0.0, 0.0, 0.01, 0.0, 0.0, 0.0, 0.01)"
2019/09/05/07:27:24.449425,6907,1567636044,449018013,gx5_link,-0.13457788527,0.10681630671,0.778329253197,0.603889584541,"(0.01, 0.0, 0.0, 0.0, 0.01, 0.0, 0.0, 0.0, 0.01)",0.000461893738247,-0.0033640647307,0.00124423322268,"(0.01, 0.0, 0.0, 0.0, 0.01, 0.0, 0.0, 0.0, 0.01)",0.14216805934,-3.30682615399,-9.2250954169,"(0.01, 0.0, 0.0, 0.0, 0.01, 0.0, 0.0, 0.0, 0.01)"
2019/09/05/07:27:24.461466,6908,1567636044,461080565,gx5_link,-0.134576678276,0.106815382838,0.778329432011,0.60388982296,"(0.01, 0.0, 0.0, 0.0, 0.01, 0.0, 0.0, 0.0, 0.01)",0.000275008846074,-0.00296416762285,0.00186014221981,"(0.01, 0.0, 0.0, 0.0, 0.01, 0.0, 0.0, 0.0, 0.01)",0.1421656565,-3.30421595693,-9.224368608,"(0.01, 0.0, 0.0, 0.0, 0.01, 0.0, 0.0, 0.0, 0.01)"
2019/09/05/07:27:24.479414,6909,1567636044,479061335,gx5_link,-0.134577438235,0.106811620295,0.778322339058,0.603899419308,"(0.01, 0.0, 0.0, 0.0, 0.01, 0.0, 0.0, 0.0, 0.01)",0.000355876691174,-0.00318535626866,0.0016312210355,"(0.01, 0.0, 0.0, 0.0, 0.01, 0.0, 0.0, 0.0, 0.01)",0.139695317522,-3.30774095088,-9.2224735254,"(0.01, 0.0, 0.0, 0.0, 0.01, 0.0, 0.0, 0.0, 0.01)"
2019/09/05/07:27:24.491414,6910,1567636044,491063006,gx5_link,-0.134582147002,0.10681180656,0.778325200081,0.603894650936,"(0.01, 0.0, 0.0, 0.0, 0.01, 0.0, 0.0, 0.0, 0.01)",0.00144872243982,-0.00336343166418,0.000707172555849,"(0.01, 0.0, 0.0, 0.0, 0.01, 0.0, 0.0, 0.0, 0.01)",0.142224384472,-3.30521933913,-9.22358274221,"(0.01, 0.0, 0.0, 0.0, 0.01, 0.0, 0.0, 0.0, 0.01)"
2019/09/05/07:27:24.515557,6911,1567636044,514973382,gx5_link,-0.134578719735,0.106813639402,0.778321504593,0.60389983654,"(0.01, 0.0, 0.0, 0.0, 0.01, 0.0, 0.0, 0.0, 0.01)",-0.000463359290734,-0.00288335443474,0.00145079649519,"(0.01, 0.0, 0.0, 0.0, 0.01, 0.0, 0.0, 0.0, 0.01)",0.144459902924,-3.30710623562,-9.22639525294,"(0.01, 0.0, 0.0, 0.0, 0.01, 0.0, 0.0, 0.0, 0.01)"
2019/09/05/07:27:24.521588,6912,1567636044,521128213,gx5_link,-0.1345833987,0.106816448271,0.778319597244,0.603900790215,"(0.01, 0.0, 0.0, 0.0, 0.01, 0.0, 0.0, 0.0, 0.01)",0.00186431920156,-0.00369802303612,0.00178295082878,"(0.01, 0.0, 0.0, 0.0, 0.01, 0.0, 0.0, 0.0, 0.01)",0.141824992234,-3.30660366744,-9.22602570891,"(0.01, 0.0, 0.0, 0.0, 0.01, 0.0, 0.0, 0.0, 0.01)"
2019/09/05/07:27:24.539557,6913,1567636044,539071150,gx5_link,-0.134582966566,0.106819592416,0.778313696384,0.603907942772,"(0.01, 0.0, 0.0, 0.0, 0.01, 0.0, 0.0, 0.0, 0.01)",0.00113161769696,-0.00282896310091,0.00199701264501,"(0.01, 0.0, 0.0, 0.0, 0.01, 0.0, 0.0, 0.0, 0.01)",0.143321249038,-3.30715535223,-9.22625784338,"(0.01, 0.0, 0.0, 0.0, 0.01, 0.0, 0.0, 0.0, 0.01)"
2019/09/05/07:27:24.557441,6914,1567636044,557020349,gx5_link,-0.13458634913,0.106824055314,0.77831351757,0.603906691074,"(0.01, 0.0, 0.0, 0.0, 0.01, 0.0, 0.0, 0.0, 0.01)",0.000933730392717,-0.00340785109438,0.00202795886435,"(0.01, 0.0, 0.0, 0.0, 0.01, 0.0, 0.0, 0.0, 0.01)",0.142013601484,-3.3032812795,-9.22876629889,"(0.01, 0.0, 0.0, 0.0, 0.01, 0.0, 0.0, 0.0, 0.01)"
2019/09/05/07:27:24.569861,6915,1567636044,569107823,gx5_link,-0.134584590793,0.10682682693,0.77831107378,0.603909671307,"(0.01, 0.0, 0.0, 0.0, 0.01, 0.0, 0.0, 0.0, 0.01)",0.000355208700057,-0.00258734286763,0.00141334463842,"(0.01, 0.0, 0.0, 0.0, 0.01, 0.0, 0.0, 0.0, 0.01)",0.142721827207,-3.30865048528,-9.22400491118,"(0.01, 0.0, 0.0, 0.0, 0.01, 0.0, 0.0, 0.0, 0.01)"
2019/09/05/07:27:24.587599,6916,1567636044,587129089,gx5_link,-0.13458570838,0.106830611825,0.778311252594,0.603908538818,"(0.01, 0.0, 0.0, 0.0, 0.01, 0.0, 0.0, 0.0, 0.01)",0.00168668944389,-0.00284776953049,0.000913948984817,"(0.01, 0.0, 0.0, 0.0, 0.01, 0.0, 0.0, 0.0, 0.01)",0.143898570221,-3.30592772931,-9.22598302424,"(0.01, 0.0, 0.0, 0.0, 0.01, 0.0, 0.0, 0.0, 0.01)"
2019/09/05/07:27:24.599789,6917,1567636044,599026546,gx5_link,-0.134579971433,0.106826357543,0.778313934803,0.603907048702,"(0.01, 0.0, 0.0, 0.0, 0.01, 0.0, 0.0, 0.0, 0.01)",-0.000281695887679,-0.00386161310598,0.000440861855168,"(0.01, 0.0, 0.0, 0.0, 0.01, 0.0, 0.0, 0.0, 0.01)",0.142121171979,-3.30524243563,-9.22424640119,"(0.01, 0.0, 0.0, 0.0, 0.01, 0.0, 0.0, 0.0, 0.01)"
2019/09/05/07:27:24.617912,6918,1567636044,617481289,gx5_link,-0.134576633573,0.106830649078,0.778309881687,0.603912353516,"(0.01, 0.0, 0.0, 0.0, 0.01, 0.0, 0.0, 0.0, 0.01)",0.000274867023109,-0.00292283296585,0.00161852524616,"(0.01, 0.0, 0.0, 0.0, 0.01, 0.0, 0.0, 0.0, 0.01)",0.141285129776,-3.30765382737,-9.22543923318,"(0.01, 0.0, 0.0, 0.0, 0.01, 0.0, 0.0, 0.0, 0.01)"
2019/09/05/07:27:24.629560,6919,1567636044,629021599,gx5_link,-0.134573593736,0.106831952929,0.778304040432,0.603920280933,"(0.01, 0.0, 0.0, 0.0, 0.01, 0.0, 0.0, 0.0, 0.01)",-0.000382216268918,-0.00342355202883,0.00181850465015,"(0.01, 0.0, 0.0, 0.0, 0.01, 0.0, 0.0, 0.0, 0.01)",0.143944918541,-3.30856073052,-9.22590759516,"(0.01, 0.0, 0.0, 0.0, 0.01, 0.0, 0.0, 0.0, 0.01)"
2019/09/05/07:27:24.647532,6920,1567636044,647064687,gx5_link,-0.134577468038,0.106832839549,0.778307199478,0.603915214539,"(0.01, 0.0, 0.0, 0.0, 0.01, 0.0, 0.0, 0.0, 0.01)",0.000922065228224,-0.00343222427182,-0.000400926626753,"(0.01, 0.0, 0.0, 0.0, 0.01, 0.0, 0.0, 0.0, 0.01)",0.143847498447,-3.30609788328,-9.22585204661,"(0.01, 0.0, 0.0, 0.0, 0.01, 0.0, 0.0, 0.0, 0.01)"
2019/09/05/07:27:24.665558,6921,1567636044,665073292,gx5_link,-0.134576201439,0.106835283339,0.7783010602,0.603922963142,"(0.01, 0.0, 0.0, 0.0, 0.01, 0.0, 0.0, 0.0, 0.01)",0.00113466731273,-0.00290747894906,0.00119708129205,"(0.01, 0.0, 0.0, 0.0, 0.01, 0.0, 0.0, 0.0, 0.01)",0.143310632687,-3.30280356199,-9.22331552446,"(0.01, 0.0, 0.0, 0.0, 0.01, 0.0, 0.0, 0.0, 0.01)"
2019/09/05/07:27:24.671758,6922,1567636044,671327549,gx5_link,-0.134570240974,0.10683311522,0.77830094099,0.603924751282,"(0.01, 0.0, 0.0, 0.0, 0.01, 0.0, 0.0, 0.0, 0.01)",-0.000611286610365,-0.00334990979172,0.00160674366634,"(0.01, 0.0, 0.0, 0.0, 0.01, 0.0, 0.0, 0.0, 0.01)",0.143004594902,-3.30606777012,-9.22365349352,"(0.01, 0.0, 0.0, 0.0, 0.01, 0.0, 0.0, 0.0, 0.01)"
2019/09/05/07:27:24.689859,6923,1567636044,689153562,gx5_link,-0.134567350149,0.106826096773,0.778297781944,0.603930771351,"(0.01, 0.0, 0.0, 0.0, 0.01, 0.0, 0.0, 0.0, 0.01)",-0.000581855420023,-0.00373164890334,0.00179805629887,"(0.01, 0.0, 0.0, 0.0, 0.01, 0.0, 0.0, 0.0, 0.01)",0.144479564186,-3.30517577738,-9.22522522509,"(0.01, 0.0, 0.0, 0.0, 0.01, 0.0, 0.0, 0.0, 0.01)"
2019/09/05/07:27:24.703058,6924,1567636044,701166032,gx5_link,-0.134567737579,0.106824055314,0.778299152851,0.603929281235,"(0.01, 0.0, 0.0, 0.0, 0.01, 0.0, 0.0, 0.0, 0.01)",0.000406086968724,-0.0039073494263,0.000994941103272,"(0.01, 0.0, 0.0, 0.0, 0.01, 0.0, 0.0, 0.0, 0.01)",0.144599715332,-3.30697438091,-9.22557079554,"(0.01, 0.0, 0.0, 0.0, 0.01, 0.0, 0.0, 0.0, 0.01)"
2019/09/05/07:27:24.719279,6925,1567636044,719020091,gx5_link,-0.134565427899,0.106824837625,0.778293192387,0.603937327862,"(0.01, 0.0, 0.0, 0.0, 0.01, 0.0, 0.0, 0.0, 0.01)",0.000252938596532,-0.00331946415827,0.00181183032691,"(0.01, 0.0, 0.0, 0.0, 0.01, 0.0, 0.0, 0.0, 0.01)",0.13978681731,-3.30729627013,-9.22501180172,"(0.01, 0.0, 0.0, 0.0, 0.01, 0.0, 0.0, 0.0, 0.01)"
2019/09/05/07:27:24.737086,6926,1567636044,731019362,gx5_link,-0.134563177824,0.106827944517,0.778299212456,0.603929519653,"(0.01, 0.0, 0.0, 0.0, 0.01, 0.0, 0.0, 0.0, 0.01)",0.000316972815199,-0.00217109522782,0.000999994692393,"(0.01, 0.0, 0.0, 0.0, 0.01, 0.0, 0.0, 0.0, 0.01)",0.144085470987,-3.30774972171,-9.22567487597,"(0.01, 0.0, 0.0, 0.0, 0.01, 0.0, 0.0, 0.0, 0.01)"
2019/09/05/07:27:24.749672,6927,1567636044,749108033,gx5_link,-0.134565025568,0.106833294034,0.778292834759,0.603936374187,"(0.01, 0.0, 0.0, 0.0, 0.01, 0.0, 0.0, 0.0, 0.01)",0.00155801419169,-0.00260552484542,0.00119215680752,"(0.01, 0.0, 0.0, 0.0, 0.01, 0.0, 0.0, 0.0, 0.01)",0.142401061747,-3.30538042992,-9.22187593997,"(0.01, 0.0, 0.0, 0.0, 0.01, 0.0, 0.0, 0.0, 0.01)"
2019/09/05/07:27:24.767552,6928,1567636044,767019799,gx5_link,-0.134566575289,0.106826528907,0.778293132782,0.603936851025,"(0.01, 0.0, 0.0, 0.0, 0.01, 0.0, 0.0, 0.0, 0.01)",1.97900808416e-05,-0.00342734134756,0.00209375307895,"(0.01, 0.0, 0.0, 0.0, 0.01, 0.0, 0.0, 0.0, 0.01)",0.142574468236,-3.30794151038,-9.22365700185,"(0.01, 0.0, 0.0, 0.0, 0.01, 0.0, 0.0, 0.0, 0.01)"
2019/09/05/07:27:24.781150,6929,1567636044,779030156,gx5_link,-0.134565487504,0.106831006706,0.778295099735,0.603933811188,"(0.01, 0.0, 0.0, 0.0, 0.01, 0.0, 0.0, 0.0, 0.01)",0.000283174740616,-0.00250402512029,-0.000161079398822,"(0.01, 0.0, 0.0, 0.0, 0.01, 0.0, 0.0, 0.0, 0.01)",0.145592051782,-3.30964041889,-9.22596372843,"(0.01, 0.0, 0.0, 0.0, 0.01, 0.0, 0.0, 0.0, 0.01)"
2019/09/05/07:27:24.797764,6930,1567636044,797025438,gx5_link,-0.134566769004,0.106828123331,0.778296947479,0.603931605816,"(0.01, 0.0, 0.0, 0.0, 0.01, 0.0, 0.0, 0.0, 0.01)",0.000260045257164,-0.00388497929089,0.000835038197692,"(0.01, 0.0, 0.0, 0.0, 0.01, 0.0, 0.0, 0.0, 0.01)",0.143302848581,-3.30847243756,-9.2280318886,"(0.01, 0.0, 0.0, 0.0, 0.01, 0.0, 0.0, 0.0, 0.01)"
2019/09/05/07:27:24.815335,6931,1567636044,815000047,gx5_link,-0.134569972754,0.106828421354,0.778294205666,0.603934407234,"(0.01, 0.0, 0.0, 0.0, 0.01, 0.0, 0.0, 0.0, 0.01)",0.000582334469073,-0.00368036003783,0.00134322140366,"(0.01, 0.0, 0.0, 0.0, 0.01, 0.0, 0.0, 0.0, 0.01)",0.141692479709,-3.30807979703,-9.22598653257,"(0.01, 0.0, 0.0, 0.0, 0.01, 0.0, 0.0, 0.0, 0.01)"
2019/09/05/07:27:24.823015,6932,1567636044,821056313,gx5_link,-0.134567663074,0.106828905642,0.778301537037,0.603925287724,"(0.01, 0.0, 0.0, 0.0, 0.01, 0.0, 0.0, 0.0, 0.01)",0.000388009124435,-0.0031874764245,0.000408583058743,"(0.01, 0.0, 0.0, 0.0, 0.01, 0.0, 0.0, 0.0, 0.01)",0.141759055741,-3.3079719159,-9.225401811,"(0.01, 0.0, 0.0, 0.0, 0.01, 0.0, 0.0, 0.0, 0.01)"
2019/09/05/07:27:24.839590,6933,1567636044,839207540,gx5_link,-0.134567290545,0.106827788055,0.778300106525,0.603927433491,"(0.01, 0.0, 0.0, 0.0, 0.01, 0.0, 0.0, 0.0, 0.01)",-0.000335579941748,-0.00336022255942,0.00064049276989,"(0.01, 0.0, 0.0, 0.0, 0.01, 0.0, 0.0, 0.0, 0.01)",0.14325093627,-3.30828152597,-9.22271852374,"(0.01, 0.0, 0.0, 0.0, 0.01, 0.0, 0.0, 0.0, 0.01)"
2019/09/05/07:27:24.851405,6934,1567636044,850985223,gx5_link,-0.134563937783,0.106832116842,0.778299152851,0.603928685188,"(0.01, 0.0, 0.0, 0.0, 0.01, 0.0, 0.0, 0.0, 0.01)",0.00058079790324,-0.00260404217988,0.000813510734588,"(0.01, 0.0, 0.0, 0.0, 0.01, 0.0, 0.0, 0.0, 0.01)",0.144143331014,-3.30883584201,-9.22497028649,"(0.01, 0.0, 0.0, 0.0, 0.01, 0.0, 0.0, 0.0, 0.01)"
2019/09/05/07:27:24.869463,6935,1567636044,869007526,gx5_link,-0.134566545486,0.106831081212,0.77829772234,0.603930175304,"(0.01, 0.0, 0.0, 0.0, 0.01, 0.0, 0.0, 0.0, 0.01)",0.00115793175064,-0.00321273459122,0.000590416835621,"(0.01, 0.0, 0.0, 0.0, 0.01, 0.0, 0.0, 0.0, 0.01)",0.142779477099,-3.30452381283,-9.2253421694,"(0.01, 0.0, 0.0, 0.0, 0.01, 0.0, 0.0, 0.0, 0.01)"
2019/09/05/07:27:24.881372,6936,1567636044,880979088,gx5_link,-0.13456556201,0.106825381517,0.778304100037,0.603923141956,"(0.01, 0.0, 0.0, 0.0, 0.01, 0.0, 0.0, 0.0, 0.01)",-5.5278360378e-06,-0.0045407153666,0.000330858078087,"(0.01, 0.0, 0.0, 0.0, 0.01, 0.0, 0.0, 0.0, 0.01)",0.142685903376,-3.30668055832,-9.22386282384,"(0.01, 0.0, 0.0, 0.0, 0.01, 0.0, 0.0, 0.0, 0.01)"
2019/09/05/07:27:24.899372,6937,1567636044,898877955,gx5_link,-0.134565517306,0.106819100678,0.778303623199,0.603924870491,"(0.01, 0.0, 0.0, 0.0, 0.01, 0.0, 0.0, 0.0, 0.01)",-0.000630010967143,-0.00455127237365,0.000850357522722,"(0.01, 0.0, 0.0, 0.0, 0.01, 0.0, 0.0, 0.0, 0.01)",0.143953433549,-3.30679662555,-9.22518429458,"(0.01, 0.0, 0.0, 0.0, 0.01, 0.0, 0.0, 0.0, 0.01)"
2019/09/05/07:27:24.911602,6938,1567636044,911039933,gx5_link,-0.134564623237,0.106816239655,0.778305351734,0.60392332077,"(0.01, 0.0, 0.0, 0.0, 0.01, 0.0, 0.0, 0.0, 0.01)",-0.000333830132149,-0.00380260893144,0.000844834023155,"(0.01, 0.0, 0.0, 0.0, 0.01, 0.0, 0.0, 0.0, 0.01)",0.142528805137,-3.30512315243,-9.22340323269,"(0.01, 0.0, 0.0, 0.0, 0.01, 0.0, 0.0, 0.0, 0.01)"
2019/09/05/07:27:24.929756,6939,1567636044,929019766,gx5_link,-0.134559631348,0.106823660433,0.778301417828,0.603928267956,"(0.01, 0.0, 0.0, 0.0, 0.01, 0.0, 0.0, 0.0, 0.01)",0.000185054261237,-0.00223585823551,0.00146891805343,"(0.01, 0.0, 0.0, 0.0, 0.01, 0.0, 0.0, 0.0, 0.01)",0.143005864844,-3.30677235961,-9.22396982789,"(0.01, 0.0, 0.0, 0.0, 0.01, 0.0, 0.0, 0.0, 0.01)"
2019/09/05/07:27:24.941797,6940,1567636044,941048721,gx5_link,-0.134555086493,0.10682426393,0.778305053711,0.603924393654,"(0.01, 0.0, 0.0, 0.0, 0.01, 0.0, 0.0, 0.0, 0.01)",-0.000715474365279,-0.00259850732982,0.000876109465025,"(0.01, 0.0, 0.0, 0.0, 0.01, 0.0, 0.0, 0.0, 0.01)",0.141519374717,-3.30638732046,-9.22448730648,"(0.01, 0.0, 0.0, 0.0, 0.01, 0.0, 0.0, 0.0, 0.01)"
2019/09/05/07:27:24.965496,6941,1567636044,965050950,gx5_link,-0.134558171034,0.106822662055,0.778308272362,0.603919923306,"(0.01, 0.0, 0.0, 0.0, 0.01, 0.0, 0.0, 0.0, 0.01)",0.000429008563515,-0.00307979574427,0.000943551422097,"(0.01, 0.0, 0.0, 0.0, 0.01, 0.0, 0.0, 0.0, 0.01)",0.141707938286,-3.30463900298,-9.22321202874,"(0.01, 0.0, 0.0, 0.0, 0.01, 0.0, 0.0, 0.0, 0.01)"
2019/09/05/07:27:24.971663,6942,1567636044,971074082,gx5_link,-0.134557440877,0.106820993125,0.778315544128,0.603911042213,"(0.01, 0.0, 0.0, 0.0, 0.01, 0.0, 0.0, 0.0, 0.01)",6.58417411614e-05,-0.00328965298831,0.000469026825158,"(0.01, 0.0, 0.0, 0.0, 0.01, 0.0, 0.0, 0.0, 0.01)",0.141800178112,-3.30508280665,-9.2222185868,"(0.01, 0.0, 0.0, 0.0, 0.01, 0.0, 0.0, 0.0, 0.01)"
2019/09/05/07:27:24.989366,6943,1567636044,989020619,gx5_link,-0.134558498859,0.106825940311,0.778313696384,0.603912234306,"(0.01, 0.0, 0.0, 0.0, 0.01, 0.0, 0.0, 0.0, 0.01)",0.00132286944427,-0.00207794131711,0.00107239955105,"(0.01, 0.0, 0.0, 0.0, 0.01, 0.0, 0.0, 0.0, 0.01)",0.1421181296,-3.30570758164,-9.22598127007,"(0.01, 0.0, 0.0, 0.0, 0.01, 0.0, 0.0, 0.0, 0.01)"
2019/09/05/07:27:25.001464,6944,1567636045,979332,gx5_link,-0.134556770325,0.106823265553,0.778316915035,0.603908956051,"(0.01, 0.0, 0.0, 0.0, 0.01, 0.0, 0.0, 0.0, 0.01)",7.82172865001e-05,-0.00251467572525,0.000622899387963,"(0.01, 0.0, 0.0, 0.0, 0.01, 0.0, 0.0, 0.0, 0.01)",0.142398731997,-3.30814704001,-9.22682677746,"(0.01, 0.0, 0.0, 0.0, 0.01, 0.0, 0.0, 0.0, 0.01)"
2019/09/05/07:27:25.021117,6945,1567636045,19005528,gx5_link,-0.134555637836,0.106826737523,0.778319180012,0.6039057374,"(0.01, 0.0, 0.0, 0.0, 0.01, 0.0, 0.0, 0.0, 0.01)",0.000480884074932,-0.00270575261675,0.00142344343476,"(0.01, 0.0, 0.0, 0.0, 0.01, 0.0, 0.0, 0.0, 0.01)",0.141748256665,-3.30655952096,-9.22425868034,"(0.01, 0.0, 0.0, 0.0, 0.01, 0.0, 0.0, 0.0, 0.01)"
2019/09/05/07:27:25.031476,6946,1567636045,31063136,gx5_link,-0.134561851621,0.106827676296,0.778322160244,0.603900313377,"(0.01, 0.0, 0.0, 0.0, 0.01, 0.0, 0.0, 0.0, 0.01)",0.000635704782326,-0.00342748803087,0.000394612259697,"(0.01, 0.0, 0.0, 0.0, 0.01, 0.0, 0.0, 0.0, 0.01)",0.14200335972,-3.30642561972,-9.22385990024,"(0.01, 0.0, 0.0, 0.0, 0.01, 0.0, 0.0, 0.0, 0.01)"
2019/09/05/07:27:25.051016,6947,1567636045,48972261,gx5_link,-0.134564548731,0.106826134026,0.778322398663,0.603899717331,"(0.01, 0.0, 0.0, 0.0, 0.01, 0.0, 0.0, 0.0, 0.01)",0.00089164765086,-0.00356154330075,0.00091024430003,"(0.01, 0.0, 0.0, 0.0, 0.01, 0.0, 0.0, 0.0, 0.01)",0.143885541894,-3.30827246279,-9.22605202138,"(0.01, 0.0, 0.0, 0.0, 0.01, 0.0, 0.0, 0.0, 0.01)"
2019/09/05/07:27:25.061249,6948,1567636045,60971800,gx5_link,-0.134569138288,0.106831207871,0.778326034546,0.603893101215,"(0.01, 0.0, 0.0, 0.0, 0.01, 0.0, 0.0, 0.0, 0.01)",0.00125594669953,-0.00289041129872,-4.79751033708e-05,"(0.01, 0.0, 0.0, 0.0, 0.01, 0.0, 0.0, 0.0, 0.01)",0.14494427165,-3.30544036388,-9.2222834909,"(0.01, 0.0, 0.0, 0.0, 0.01, 0.0, 0.0, 0.0, 0.01)"
2019/09/05/07:27:25.079602,6949,1567636045,79011923,gx5_link,-0.134570360184,0.106831654906,0.778325200081,0.603893816471,"(0.01, 0.0, 0.0, 0.0, 0.01, 0.0, 0.0, 0.0, 0.01)",0.00140197877772,-0.00379915256053,-2.26606498472e-05,"(0.01, 0.0, 0.0, 0.0, 0.01, 0.0, 0.0, 0.0, 0.01)",0.141627776613,-3.30453170657,-9.22346696734,"(0.01, 0.0, 0.0, 0.0, 0.01, 0.0, 0.0, 0.0, 0.01)"
2019/09/05/07:27:25.097405,6950,1567636045,96972955,gx5_link,-0.134575620294,0.10683067143,0.778325736523,0.603892087936,"(0.01, 0.0, 0.0, 0.0, 0.01, 0.0, 0.0, 0.0, 0.01)",0.000482824689243,-0.00382491620257,0.00113885174505,"(0.01, 0.0, 0.0, 0.0, 0.01, 0.0, 0.0, 0.0, 0.01)",0.140117778853,-3.30690947682,-9.22496034622,"(0.01, 0.0, 0.0, 0.0, 0.01, 0.0, 0.0, 0.0, 0.01)"
2019/09/05/07:27:25.115416,6951,1567636045,114869768,gx5_link,-0.134574055672,0.106831453741,0.778322279453,0.603896796703,"(0.01, 0.0, 0.0, 0.0, 0.01, 0.0, 0.0, 0.0, 0.01)",-0.000123472855194,-0.00337887811475,0.00126068352256,"(0.01, 0.0, 0.0, 0.0, 0.01, 0.0, 0.0, 0.0, 0.01)",0.144645698201,-3.30636743993,-9.22602337003,"(0.01, 0.0, 0.0, 0.0, 0.01, 0.0, 0.0, 0.0, 0.01)"
2019/09/05/07:27:25.130718,6952,1567636045,126922789,gx5_link,-0.13457468152,0.106832459569,0.778323531151,0.60389482975,"(0.01, 0.0, 0.0, 0.0, 0.01, 0.0, 0.0, 0.0, 0.01)",-7.87668686826e-05,-0.00285219354555,0.00196709856391,"(0.01, 0.0, 0.0, 0.0, 0.01, 0.0, 0.0, 0.0, 0.01)",0.141190615017,-3.30795145065,-9.22684314966,"(0.01, 0.0, 0.0, 0.0, 0.01, 0.0, 0.0, 0.0, 0.01)"
2019/09/05/07:27:25.139438,6953,1567636045,138976910,gx5_link,-0.134571790695,0.106827288866,0.778324246407,0.603895425797,"(0.01, 0.0, 0.0, 0.0, 0.01, 0.0, 0.0, 0.0, 0.01)",-0.000517801032402,-0.00360841769725,0.00129190925509,"(0.01, 0.0, 0.0, 0.0, 0.01, 0.0, 0.0, 0.0, 0.01)",0.143910913328,-3.30511379689,-9.22650342643,"(0.01, 0.0, 0.0, 0.0, 0.01, 0.0, 0.0, 0.0, 0.01)"
2019/09/05/07:27:25.158652,6954,1567636045,156984937,gx5_link,-0.13457916677,0.106829568744,0.778329491615,0.603886663914,"(0.01, 0.0, 0.0, 0.0, 0.01, 0.0, 0.0, 0.0, 0.01)",0.00160499138292,-0.00343274697661,-9.66585503193e-05,"(0.01, 0.0, 0.0, 0.0, 0.01, 0.0, 0.0, 0.0, 0.01)",0.142871095659,-3.30680422693,-9.22697997451,"(0.01, 0.0, 0.0, 0.0, 0.01, 0.0, 0.0, 0.0, 0.01)"
2019/09/05/07:27:25.169321,6955,1567636045,168929607,gx5_link,-0.134581580758,0.106827303767,0.778324604034,0.603892803192,"(0.01, 0.0, 0.0, 0.0, 0.01, 0.0, 0.0, 0.0, 0.01)",0.00153122423217,-0.00360362487845,0.00086817907868,"(0.01, 0.0, 0.0, 0.0, 0.01, 0.0, 0.0, 0.0, 0.01)",0.141888653794,-3.30630019695,-9.2259251368,"(0.01, 0.0, 0.0, 0.0, 0.01, 0.0, 0.0, 0.0, 0.01)"
2019/09/05/07:27:25.187441,6956,1567636045,186988878,gx5_link,-0.134587958455,0.106826134026,0.77832120657,0.603896021843,"(0.01, 0.0, 0.0, 0.0, 0.01, 0.0, 0.0, 0.0, 0.01)",0.00226782425307,-0.00445236824453,0.00220563821495,"(0.01, 0.0, 0.0, 0.0, 0.01, 0.0, 0.0, 0.0, 0.01)",0.142083018897,-3.3045963183,-9.22248112679,"(0.01, 0.0, 0.0, 0.0, 0.01, 0.0, 0.0, 0.0, 0.01)"
2019/09/05/07:27:25.199323,6957,1567636045,198977168,gx5_link,-0.134589850903,0.106822893023,0.778323531151,0.603893101215,"(0.01, 0.0, 0.0, 0.0, 0.01, 0.0, 0.0, 0.0, 0.01)",0.00170620286372,-0.00417040660977,0.00202443287708,"(0.01, 0.0, 0.0, 0.0, 0.01, 0.0, 0.0, 0.0, 0.01)",0.144491989519,-3.30747314841,-9.22383241832,"(0.01, 0.0, 0.0, 0.0, 0.01, 0.0, 0.0, 0.0, 0.01)"
2019/09/05/07:27:25.217937,6958,1567636045,217054762,gx5_link,-0.134591922164,0.106823898852,0.778324306011,0.60389149189,"(0.01, 0.0, 0.0, 0.0, 0.01, 0.0, 0.0, 0.0, 0.01)",0.00169639801607,-0.00417217705399,0.000952576403506,"(0.01, 0.0, 0.0, 0.0, 0.01, 0.0, 0.0, 0.0, 0.01)",0.142651596665,-3.30651888281,-9.22346696734,"(0.01, 0.0, 0.0, 0.0, 0.01, 0.0, 0.0, 0.0, 0.01)"
2019/09/05/07:27:25.229344,6959,1567636045,229027679,gx5_link,-0.134585782886,0.106825739145,0.778322279453,0.603895068169,"(0.01, 0.0, 0.0, 0.0, 0.01, 0.0, 0.0, 0.0, 0.01)",0.00016660199617,-0.00302924378775,0.00105962285306,"(0.01, 0.0, 0.0, 0.0, 0.01, 0.0, 0.0, 0.0, 0.01)",0.143989421334,-3.30721353203,-9.22400081813,"(0.01, 0.0, 0.0, 0.0, 0.01, 0.0, 0.0, 0.0, 0.01)"
2019/09/05/07:27:25.247407,6960,1567636045,246950015,gx5_link,-0.134582668543,0.106826499104,0.778319597244,0.603899180889,"(0.01, 0.0, 0.0, 0.0, 0.01, 0.0, 0.0, 0.0, 0.01)",-0.000193425221369,-0.00234061200172,0.00152958370745,"(0.01, 0.0, 0.0, 0.0, 0.01, 0.0, 0.0, 0.0, 0.01)",0.143190910947,-3.30724335283,-9.22701271892,"(0.01, 0.0, 0.0, 0.0, 0.01, 0.0, 0.0, 0.0, 0.01)"
2019/09/05/07:27:25.270092,6961,1567636045,264938931,gx5_link,-0.134579956532,0.106821089983,0.778316617012,0.603904604912,"(0.01, 0.0, 0.0, 0.0, 0.01, 0.0, 0.0, 0.0, 0.01)",-0.000345111067872,-0.00358203565702,0.00193423847668,"(0.01, 0.0, 0.0, 0.0, 0.01, 0.0, 0.0, 0.0, 0.01)",0.141997046554,-3.30726381809,-9.22371956706,"(0.01, 0.0, 0.0, 0.0, 0.01, 0.0, 0.0, 0.0, 0.01)"
2019/09/05/07:27:25.271441,6962,1567636045,270956480,gx5_link,-0.134581878781,0.106821119785,0.778318464756,0.603901803493,"(0.01, 0.0, 0.0, 0.0, 0.01, 0.0, 0.0, 0.0, 0.01)",0.000186327204574,-0.00361240352504,0.00138764153235,"(0.01, 0.0, 0.0, 0.0, 0.01, 0.0, 0.0, 0.0, 0.01)",0.140684492821,-3.30874959558,-9.22356052279,"(0.01, 0.0, 0.0, 0.0, 0.01, 0.0, 0.0, 0.0, 0.01)"
2019/09/05/07:27:25.289343,6963,1567636045,288907701,gx5_link,-0.134578615427,0.10681861639,0.778319180012,0.603902041912,"(0.01, 0.0, 0.0, 0.0, 0.01, 0.0, 0.0, 0.0, 0.01)",-0.000152915687067,-0.00326127675362,0.00106573628727,"(0.01, 0.0, 0.0, 0.0, 0.01, 0.0, 0.0, 0.0, 0.01)",0.140572034419,-3.30634843647,-9.22529539168,"(0.01, 0.0, 0.0, 0.0, 0.01, 0.0, 0.0, 0.0, 0.01)"
2019/09/05/07:27:25.303098,6964,1567636045,300940886,gx5_link,-0.134582266212,0.106820963323,0.778325021267,0.603893280029,"(0.01, 0.0, 0.0, 0.0, 0.01, 0.0, 0.0, 0.0, 0.01)",0.000750194361899,-0.00338284554891,0.00135040283203,"(0.01, 0.0, 0.0, 0.0, 0.01, 0.0, 0.0, 0.0, 0.01)",0.14086660618,-3.30864960819,-9.2229208374,"(0.01, 0.0, 0.0, 0.0, 0.01, 0.0, 0.0, 0.0, 0.01)"
2019/09/05/07:27:25.319469,6965,1567636045,318949875,gx5_link,-0.134587407112,0.106817364693,0.77832120657,0.603897690773,"(0.01, 0.0, 0.0, 0.0, 0.01, 0.0, 0.0, 0.0, 0.01)",0.000990968779661,-0.00477085448802,0.00135052937549,"(0.01, 0.0, 0.0, 0.0, 0.01, 0.0, 0.0, 0.0, 0.01)",0.141635953579,-3.30562425882,-9.22519423485,"(0.01, 0.0, 0.0, 0.0, 0.01, 0.0, 0.0, 0.0, 0.01)"
2019/09/05/07:27:25.331215,6966,1567636045,330901045,gx5_link,-0.134584918618,0.106819801033,0.778325498104,0.603892207146,"(0.01, 0.0, 0.0, 0.0, 0.01, 0.0, 0.0, 0.0, 0.01)",4.35982074123e-05,-0.00214917166159,0.00127336173318,"(0.01, 0.0, 0.0, 0.0, 0.01, 0.0, 0.0, 0.0, 0.01)",0.142523542643,-3.30747519493,-9.22648237646,"(0.01, 0.0, 0.0, 0.0, 0.01, 0.0, 0.0, 0.0, 0.01)"
2019/09/05/07:27:25.349422,6967,1567636045,349047331,gx5_link,-0.13458353281,0.106821604073,0.778322935104,0.60389560461,"(0.01, 0.0, 0.0, 0.0, 0.01, 0.0, 0.0, 0.0, 0.01)",0.00011134770466,-0.00354523048736,0.00144316628575,"(0.01, 0.0, 0.0, 0.0, 0.01, 0.0, 0.0, 0.0, 0.01)",0.143491576603,-3.30524477452,-9.22783074439,"(0.01, 0.0, 0.0, 0.0, 0.01, 0.0, 0.0, 0.0, 0.01)"
2019/09/05/07:27:25.361337,6968,1567636045,360962192,gx5_link,-0.13458122313,0.106819972396,0.778322279453,0.603897213936,"(0.01, 0.0, 0.0, 0.0, 0.01, 0.0, 0.0, 0.0, 0.01)",-0.000152030028403,-0.00340245501138,0.00207063835114,"(0.01, 0.0, 0.0, 0.0, 0.01, 0.0, 0.0, 0.0, 0.01)",0.141894300012,-3.30604847431,-9.22428791642,"(0.01, 0.0, 0.0, 0.0, 0.01, 0.0, 0.0, 0.0, 0.01)"
2019/09/05/07:27:25.379655,6969,1567636045,378969256,gx5_link,-0.134583026171,0.106818065047,0.778324663639,0.603893995285,"(0.01, 0.0, 0.0, 0.0, 0.01, 0.0, 0.0, 0.0, 0.01)",0.000263409980107,-0.00388079416007,0.000623812607955,"(0.01, 0.0, 0.0, 0.0, 0.01, 0.0, 0.0, 0.0, 0.01)",0.143435306288,-3.30791198194,-9.22490538239,"(0.01, 0.0, 0.0, 0.0, 0.01, 0.0, 0.0, 0.0, 0.01)"
2019/09/05/07:27:25.391365,6970,1567636045,390944811,gx5_link,-0.134581014514,0.106814011931,0.77833122015,0.603886723518,"(0.01, 0.0, 0.0, 0.0, 0.01, 0.0, 0.0, 0.0, 0.01)",-0.00109903072007,-0.00346888508648,-8.91464733286e-05,"(0.01, 0.0, 0.0, 0.0, 0.01, 0.0, 0.0, 0.0, 0.01)",0.141448614271,-3.30943547398,-9.22751733363,"(0.01, 0.0, 0.0, 0.0, 0.01, 0.0, 0.0, 0.0, 0.01)"
2019/09/05/07:27:25.415398,6971,1567636045,414941552,gx5_link,-0.134577065706,0.106818236411,0.778329133987,0.603889644146,"(0.01, 0.0, 0.0, 0.0, 0.01, 0.0, 0.0, 0.0, 0.01)",1.32099667098e-05,-0.00275189755484,0.000541462446563,"(0.01, 0.0, 0.0, 0.0, 0.01, 0.0, 0.0, 0.0, 0.01)",0.14414122967,-3.30712845504,-9.22800031364,"(0.01, 0.0, 0.0, 0.0, 0.01, 0.0, 0.0, 0.0, 0.01)"
2019/09/05/07:27:25.421442,6972,1567636045,421010445,gx5_link,-0.134582519531,0.106812871993,0.778338015079,0.603877842426,"(0.01, 0.0, 0.0, 0.0, 0.01, 0.0, 0.0, 0.0, 0.01)",0.000348788977135,-0.00438825972378,-5.43060305063e-05,"(0.01, 0.0, 0.0, 0.0, 0.01, 0.0, 0.0, 0.0, 0.01)",0.140511926869,-3.30574149549,-9.22645840287,"(0.01, 0.0, 0.0, 0.0, 0.01, 0.0, 0.0, 0.0, 0.01)"
2019/09/05/07:27:25.442977,6973,1567636045,439177704,gx5_link,-0.134581312537,0.10681694001,0.778338670731,0.603876531124,"(0.01, 0.0, 0.0, 0.0, 0.01, 0.0, 0.0, 0.0, 0.01)",0.000458379043266,-0.0021745339036,0.00042171595851,"(0.01, 0.0, 0.0, 0.0, 0.01, 0.0, 0.0, 0.0, 0.01)",0.140820723809,-3.30547398537,-9.22824238837,"(0.01, 0.0, 0.0, 0.0, 0.01, 0.0, 0.0, 0.0, 0.01)"
2019/09/05/07:27:25.451345,6974,1567636045,450976603,gx5_link,-0.134579747915,0.106818042696,0.778341531754,0.603873133659,"(0.01, 0.0, 0.0, 0.0, 0.01, 0.0, 0.0, 0.0, 0.01)",-7.30003666831e-05,-0.00232946965843,0.000970518507529,"(0.01, 0.0, 0.0, 0.0, 0.01, 0.0, 0.0, 0.0, 0.01)",0.139283143636,-3.30686211437,-9.22352368534,"(0.01, 0.0, 0.0, 0.0, 0.01, 0.0, 0.0, 0.0, 0.01)"
2019/09/05/07:27:25.469481,6975,1567636045,468980017,gx5_link,-0.134580597281,0.106814287603,0.778345048428,0.603869020939,"(0.01, 0.0, 0.0, 0.0, 0.01, 0.0, 0.0, 0.0, 0.01)",-0.000225494193728,-0.00380827137269,0.000150518171722,"(0.01, 0.0, 0.0, 0.0, 0.01, 0.0, 0.0, 0.0, 0.01)",0.140815927265,-3.30946090937,-9.22313718438,"(0.01, 0.0, 0.0, 0.0, 0.01, 0.0, 0.0, 0.0, 0.01)"
2019/09/05/07:27:25.481566,6976,1567636045,480981519,gx5_link,-0.13458481431,0.10681732744,0.778348147869,0.603863537312,"(0.01, 0.0, 0.0, 0.0, 0.01, 0.0, 0.0, 0.0, 0.01)",0.000659034238197,-0.00408113654703,0.00106130936183,"(0.01, 0.0, 0.0, 0.0, 0.01, 0.0, 0.0, 0.0, 0.01)",0.143495167159,-3.30857330203,-9.22679169416,"(0.01, 0.0, 0.0, 0.0, 0.01, 0.0, 0.0, 0.0, 0.01)"
2019/09/05/07:27:25.499386,6977,1567636045,498855810,gx5_link,-0.134585827589,0.106819145381,0.778348565102,0.603862345219,"(0.01, 0.0, 0.0, 0.0, 0.01, 0.0, 0.0, 0.0, 0.01)",0.000360665668268,-0.00305906683207,7.08362786099e-05,"(0.01, 0.0, 0.0, 0.0, 0.01, 0.0, 0.0, 0.0, 0.01)",0.144763409961,-3.3084139654,-9.22595729649,"(0.01, 0.0, 0.0, 0.0, 0.01, 0.0, 0.0, 0.0, 0.01)"
2019/09/05/07:27:25.511592,6978,1567636045,511008645,gx5_link,-0.134582966566,0.10682091862,0.77834880352,0.603862464428,"(0.01, 0.0, 0.0, 0.0, 0.01, 0.0, 0.0, 0.0, 0.01)",0.000199828617042,-0.00328908953816,0.000951120280661,"(0.01, 0.0, 0.0, 0.0, 0.01, 0.0, 0.0, 0.0, 0.01)",0.144929735838,-3.30789502501,-9.22761673629,"(0.01, 0.0, 0.0, 0.0, 0.01, 0.0, 0.0, 0.0, 0.01)"
2019/09/05/07:27:25.530978,6979,1567636045,528964902,gx5_link,-0.134584739804,0.106818966568,0.77834624052,0.603865683079,"(0.01, 0.0, 0.0, 0.0, 0.01, 0.0, 0.0, 0.0, 0.01)",0.00023693498224,-0.00363522488624,0.00120501569472,"(0.01, 0.0, 0.0, 0.0, 0.01, 0.0, 0.0, 0.0, 0.01)",0.144097000966,-3.31034793198,-9.22676655114,"(0.01, 0.0, 0.0, 0.0, 0.01, 0.0, 0.0, 0.0, 0.01)"
2019/09/05/07:27:25.541284,6980,1567636045,540946043,gx5_link,-0.134590178728,0.1068168208,0.778344273567,0.603867352009,"(0.01, 0.0, 0.0, 0.0, 0.01, 0.0, 0.0, 0.0, 0.01)",0.000741167925298,-0.00404190924019,0.00116899725981,"(0.01, 0.0, 0.0, 0.0, 0.01, 0.0, 0.0, 0.0, 0.01)",0.141859655259,-3.30947815865,-9.22585087717,"(0.01, 0.0, 0.0, 0.0, 0.01, 0.0, 0.0, 0.0, 0.01)"
2019/09/05/07:27:25.565453,6981,1567636045,564954721,gx5_link,-0.134585812688,0.106822162867,0.778342187405,0.603870153427,"(0.01, 0.0, 0.0, 0.0, 0.01, 0.0, 0.0, 0.0, 0.01)",0.000776519184001,-0.00262018479407,0.000583167886361,"(0.01, 0.0, 0.0, 0.0, 0.01, 0.0, 0.0, 0.0, 0.01)",0.142628874751,-3.30711266756,-9.22486152828,"(0.01, 0.0, 0.0, 0.0, 0.01, 0.0, 0.0, 0.0, 0.01)"
2019/09/05/07:27:25.575228,6982,1567636045,571028076,gx5_link,-0.134589269757,0.106818810105,0.778341770172,0.603870511055,"(0.01, 0.0, 0.0, 0.0, 0.01, 0.0, 0.0, 0.0, 0.01)",0.000818452856038,-0.00381082412787,0.00112210900988,"(0.01, 0.0, 0.0, 0.0, 0.01, 0.0, 0.0, 0.0, 0.01)",0.143846959407,-3.30666330904,-9.22513166964,"(0.01, 0.0, 0.0, 0.0, 0.01, 0.0, 0.0, 0.0, 0.01)"
2019/09/05/07:27:25.589443,6983,1567636045,588958411,gx5_link,-0.134589865804,0.106820270419,0.778340816498,0.60387134552,"(0.01, 0.0, 0.0, 0.0, 0.01, 0.0, 0.0, 0.0, 0.01)",0.000837707251776,-0.00270627508871,0.000562587520108,"(0.01, 0.0, 0.0, 0.0, 0.01, 0.0, 0.0, 0.0, 0.01)",0.141011626264,-3.3049527061,-9.22463348687,"(0.01, 0.0, 0.0, 0.0, 0.01, 0.0, 0.0, 0.0, 0.01)"
2019/09/05/07:27:25.601377,6984,1567636045,600973711,gx5_link,-0.134584993124,0.106820911169,0.778337299824,0.603876829147,"(0.01, 0.0, 0.0, 0.0, 0.01, 0.0, 0.0, 0.0, 0.01)",-0.000107725296402,-0.00335954781622,0.00254894630052,"(0.01, 0.0, 0.0, 0.0, 0.01, 0.0, 0.0, 0.0, 0.01)",0.141515902933,-3.30493048668,-9.22426920533,"(0.01, 0.0, 0.0, 0.0, 0.01, 0.0, 0.0, 0.0, 0.01)"
2019/09/05/07:27:25.619244,6985,1567636045,618884511,gx5_link,-0.13458442688,0.106817878783,0.778334975243,0.603880465031,"(0.01, 0.0, 0.0, 0.0, 0.01, 0.0, 0.0, 0.0, 0.01)",0.0004044129455,-0.00421568099409,0.000944619067013,"(0.01, 0.0, 0.0, 0.0, 0.01, 0.0, 0.0, 0.0, 0.01)",0.142733813999,-3.3051181823,-9.22412594855,"(0.01, 0.0, 0.0, 0.0, 0.01, 0.0, 0.0, 0.0, 0.01)"
2019/09/05/07:27:25.637414,6986,1567636045,636956530,gx5_link,-0.134594425559,0.106817990541,0.778335034847,0.603878080845,"(0.01, 0.0, 0.0, 0.0, 0.01, 0.0, 0.0, 0.0, 0.01)",0.00162112503313,-0.00423975102603,0.000246735697147,"(0.01, 0.0, 0.0, 0.0, 0.01, 0.0, 0.0, 0.0, 0.01)",0.140698827635,-3.30616571099,-9.22368740737,"(0.01, 0.0, 0.0, 0.0, 0.01, 0.0, 0.0, 0.0, 0.01)"
2019/09/05/07:27:25.649250,6987,1567636045,648894726,gx5_link,-0.134591981769,0.106812357903,0.778333544731,0.603881597519,"(0.01, 0.0, 0.0, 0.0, 0.01, 0.0, 0.0, 0.0, 0.01)",-0.000487215991598,-0.00375053938478,0.000402308913181,"(0.01, 0.0, 0.0, 0.0, 0.01, 0.0, 0.0, 0.0, 0.01)",0.143893371681,-3.30808505952,-9.22630929887,"(0.01, 0.0, 0.0, 0.0, 0.01, 0.0, 0.0, 0.0, 0.01)"
2019/09/05/07:27:25.670944,6988,1567636045,666937487,gx5_link,-0.134591281414,0.106816142797,0.778327405453,0.603888988495,"(0.01, 0.0, 0.0, 0.0, 0.01, 0.0, 0.0, 0.0, 0.01)",0.00065746641485,-0.00277690845542,0.00182575848885,"(0.01, 0.0, 0.0, 0.0, 0.01, 0.0, 0.0, 0.0, 0.01)",0.142556743864,-3.30761231214,-9.2245773536,"(0.01, 0.0, 0.0, 0.0, 0.01, 0.0, 0.0, 0.0, 0.01)"
2019/09/05/07:27:25.679593,6989,1567636045,678952674,gx5_link,-0.134595796466,0.106818780303,0.778324365616,0.60389149189,"(0.01, 0.0, 0.0, 0.0, 0.01, 0.0, 0.0, 0.0, 0.01)",0.00125376856886,-0.00330134364776,0.00119536940474,"(0.01, 0.0, 0.0, 0.0, 0.01, 0.0, 0.0, 0.0, 0.01)",0.14184285365,-3.30654256403,-9.22516324461,"(0.01, 0.0, 0.0, 0.0, 0.01, 0.0, 0.0, 0.0, 0.01)"
2019/09/05/07:27:25.698883,6990,1567636045,696800331,gx5_link,-0.134594202042,0.106818802655,0.778321862221,0.603895068169,"(0.01, 0.0, 0.0, 0.0, 0.01, 0.0, 0.0, 0.0, 0.01)",0.000525298994035,-0.00265770754777,0.00116854649968,"(0.01, 0.0, 0.0, 0.0, 0.01, 0.0, 0.0, 0.0, 0.01)",0.141856722515,-3.30840080917,-9.22336756468,"(0.01, 0.0, 0.0, 0.0, 0.01, 0.0, 0.0, 0.0, 0.01)"
2019/09/05/07:27:25.715275,6991,1567636045,714823593,gx5_link,-0.134597748518,0.106817536056,0.77832198143,0.603894233704,"(0.01, 0.0, 0.0, 0.0, 0.01, 0.0, 0.0, 0.0, 0.01)",0.000994377187453,-0.0043340283446,0.000264886533841,"(0.01, 0.0, 0.0, 0.0, 0.01, 0.0, 0.0, 0.0, 0.01)",0.141649210313,-3.30742812485,-9.22474516869,"(0.01, 0.0, 0.0, 0.0, 0.01, 0.0, 0.0, 0.0, 0.01)"
2019/09/05/07:27:25.727381,6992,1567636045,726926484,gx5_link,-0.134601473808,0.106820806861,0.778323769569,0.603890538216,"(0.01, 0.0, 0.0, 0.0, 0.01, 0.0, 0.0, 0.0, 0.01)",0.00122709642164,-0.00334613258019,9.34798954404e-05,"(0.01, 0.0, 0.0, 0.0, 0.01, 0.0, 0.0, 0.0, 0.01)",0.142601264929,-3.30899897933,-9.22648705423,"(0.01, 0.0, 0.0, 0.0, 0.01, 0.0, 0.0, 0.0, 0.01)"
2019/09/05/07:27:25.739415,6993,1567636045,738990591,gx5_link,-0.134601935744,0.106821596622,0.77831953764,0.603895843029,"(0.01, 0.0, 0.0, 0.0, 0.01, 0.0, 0.0, 0.0, 0.01)",0.000435668131104,-0.00366855785251,0.000417621806264,"(0.01, 0.0, 0.0, 0.0, 0.01, 0.0, 0.0, 0.0, 0.01)",0.142506923759,-3.30844320148,-9.22734717965,"(0.01, 0.0, 0.0, 0.0, 0.01, 0.0, 0.0, 0.0, 0.01)"
2019/09/05/07:27:25.757228,6994,1567636045,756893254,gx5_link,-0.134601533413,0.10682117939,0.778316497803,0.603899896145,"(0.01, 0.0, 0.0, 0.0, 0.01, 0.0, 0.0, 0.0, 0.01)",0.000568812189158,-0.00379193644039,0.000904101761989,"(0.01, 0.0, 0.0, 0.0, 0.01, 0.0, 0.0, 0.0, 0.01)",0.142350382833,-3.30843530774,-9.22555793166,"(0.01, 0.0, 0.0, 0.0, 0.01, 0.0, 0.0, 0.0, 0.01)"
2019/09/05/07:27:25.769391,6995,1567636045,768918178,gx5_link,-0.134602144361,0.10681629926,0.778319716454,0.603896439075,"(0.01, 0.0, 0.0, 0.0, 0.01, 0.0, 0.0, 0.0, 0.01)",-8.12149737612e-05,-0.00444462848827,0.000246534269536,"(0.01, 0.0, 0.0, 0.0, 0.01, 0.0, 0.0, 0.0, 0.01)",0.141575051174,-3.30720651537,-9.22344357848,"(0.01, 0.0, 0.0, 0.0, 0.01, 0.0, 0.0, 0.0, 0.01)"
2019/09/05/07:27:25.787436,6996,1567636045,787041005,gx5_link,-0.134598210454,0.106820680201,0.778318881989,0.603897631168,"(0.01, 0.0, 0.0, 0.0, 0.01, 0.0, 0.0, 0.0, 0.01)",0.000457981193904,-0.00275138835423,0.000831164070405,"(0.01, 0.0, 0.0, 0.0, 0.01, 0.0, 0.0, 0.0, 0.01)",0.142450214904,-3.30700887948,-9.22587017298,"(0.01, 0.0, 0.0, 0.0, 0.01, 0.0, 0.0, 0.0, 0.01)"
2019/09/05/07:27:25.799450,6997,1567636045,798924657,gx5_link,-0.13459789753,0.106818191707,0.778317809105,0.603899478912,"(0.01, 0.0, 0.0, 0.0, 0.01, 0.0, 0.0, 0.0, 0.01)",0.000297437829431,-0.00344051793218,0.00074922706699,"(0.01, 0.0, 0.0, 0.0, 0.01, 0.0, 0.0, 0.0, 0.01)",0.143901311103,-3.30680013388,-9.22704078555,"(0.01, 0.0, 0.0, 0.0, 0.01, 0.0, 0.0, 0.0, 0.01)"
2019/09/05/07:27:25.817255,6998,1567636045,816866754,gx5_link,-0.134591966867,0.106819875538,0.778316378593,0.60390239954,"(0.01, 0.0, 0.0, 0.0, 0.01, 0.0, 0.0, 0.0, 0.01)",-0.000263195921434,-0.00253433641046,3.02826083498e-06,"(0.01, 0.0, 0.0, 0.0, 0.01, 0.0, 0.0, 0.0, 0.01)",0.141702812836,-3.30763599336,-9.22632508636,"(0.01, 0.0, 0.0, 0.0, 0.01, 0.0, 0.0, 0.0, 0.01)"
2019/09/05/07:27:25.829381,6999,1567636045,828879904,gx5_link,-0.134591266513,0.106820367277,0.778318345547,0.60389995575,"(0.01, 0.0, 0.0, 0.0, 0.01, 0.0, 0.0, 0.0, 0.01)",-0.000186529709026,-0.00311527517624,0.00043617823394,"(0.01, 0.0, 0.0, 0.0, 0.01, 0.0, 0.0, 0.0, 0.01)",0.141213939926,-3.30806517899,-9.22666364014,"(0.01, 0.0, 0.0, 0.0, 0.01, 0.0, 0.0, 0.0, 0.01)"
2019/09/05/07:27:25.847311,7000,1567636045,846915190,gx5_link,-0.134592711926,0.106824666262,0.77831608057,0.603901743889,"(0.01, 0.0, 0.0, 0.0, 0.01, 0.0, 0.0, 0.0, 0.01)",0.000844577793032,-0.00388984801248,0.000137594426633,"(0.01, 0.0, 0.0, 0.0, 0.01, 0.0, 0.0, 0.0, 0.01)",0.141334566157,-3.3084952417,-9.22624673367,"(0.01, 0.0, 0.0, 0.0, 0.01, 0.0, 0.0, 0.0, 0.01)"
2019/09/05/07:27:25.865301,7001,1567636045,864949752,gx5_link,-0.134590953588,0.10682938993,0.778316020966,0.603901445866,"(0.01, 0.0, 0.0, 0.0, 0.01, 0.0, 0.0, 0.0, 0.01)",0.000793125363998,-0.00291700498201,-0.00038503864198,"(0.01, 0.0, 0.0, 0.0, 0.01, 0.0, 0.0, 0.0, 0.01)",0.142302782843,-3.30822948575,-9.22395053208,"(0.01, 0.0, 0.0, 0.0, 0.01, 0.0, 0.0, 0.0, 0.01)"
2019/09/05/07:27:25.877322,7002,1567636045,877003535,gx5_link,-0.134595230222,0.10683336854,0.778312206268,0.603904664516,"(0.01, 0.0, 0.0, 0.0, 0.01, 0.0, 0.0, 0.0, 0.01)",0.00143534154631,-0.00395273184404,0.00195546424948,"(0.01, 0.0, 0.0, 0.0, 0.01, 0.0, 0.0, 0.0, 0.01)",0.142903949702,-3.30501147062,-9.2271559757,"(0.01, 0.0, 0.0, 0.0, 0.01, 0.0, 0.0, 0.0, 0.01)"
2019/09/05/07:27:25.889387,7003,1567636045,888969428,gx5_link,-0.134595513344,0.10682888329,0.778309166431,0.603909313679,"(0.01, 0.0, 0.0, 0.0, 0.01, 0.0, 0.0, 0.0, 0.01)",0.000460163835669,-0.00466622272506,0.0019426883664,"(0.01, 0.0, 0.0, 0.0, 0.01, 0.0, 0.0, 0.0, 0.01)",0.144171635192,-3.30538861603,-9.22632917941,"(0.01, 0.0, 0.0, 0.0, 0.01, 0.0, 0.0, 0.0, 0.01)"
2019/09/05/07:27:25.907412,7004,1567636045,907037711,gx5_link,-0.134598761797,0.106826499104,0.778308272362,0.603910148144,"(0.01, 0.0, 0.0, 0.0, 0.01, 0.0, 0.0, 0.0, 0.01)",0.000612444244325,-0.00428463984281,0.000966139719822,"(0.01, 0.0, 0.0, 0.0, 0.01, 0.0, 0.0, 0.0, 0.01)",0.140261967536,-3.30671476454,-9.22623386979,"(0.01, 0.0, 0.0, 0.0, 0.01, 0.0, 0.0, 0.0, 0.01)"
2019/09/05/07:27:25.926976,7005,1567636045,925024828,gx5_link,-0.134595572948,0.106827929616,0.778311610222,0.603906333447,"(0.01, 0.0, 0.0, 0.0, 0.01, 0.0, 0.0, 0.0, 0.01)",4.19461866841e-06,-0.00355312880129,0.00026740290923,"(0.01, 0.0, 0.0, 0.0, 0.01, 0.0, 0.0, 0.0, 0.01)",0.141502536563,-3.30654080987,-9.22599062562,"(0.01, 0.0, 0.0, 0.0, 0.01, 0.0, 0.0, 0.0, 0.01)"
2019/09/05/07:27:25.937198,7006,1567636045,936861885,gx5_link,-0.13459558785,0.106825679541,0.778308331966,0.603910982609,"(0.01, 0.0, 0.0, 0.0, 0.01, 0.0, 0.0, 0.0, 0.01)",0.000502709997818,-0.00455543864518,0.000865070440341,"(0.01, 0.0, 0.0, 0.0, 0.01, 0.0, 0.0, 0.0, 0.01)",0.141998398723,-3.30701092601,-9.22477615893,"(0.01, 0.0, 0.0, 0.0, 0.01, 0.0, 0.0, 0.0, 0.01)"
2019/09/05/07:27:25.955547,7007,1567636045,954883535,gx5_link,-0.134603887796,0.106823459268,0.778313398361,0.603902995586,"(0.01, 0.0, 0.0, 0.0, 0.01, 0.0, 0.0, 0.0, 0.01)",0.00143768126145,-0.0045857001096,0.00161901907995,"(0.01, 0.0, 0.0, 0.0, 0.01, 0.0, 0.0, 0.0, 0.01)",0.14023041998,-3.30748601228,-9.22599296451,"(0.01, 0.0, 0.0, 0.0, 0.01, 0.0, 0.0, 0.0, 0.01)"
2019/09/05/07:27:25.967408,7008,1567636045,966992763,gx5_link,-0.13460123539,0.106820851564,0.778310596943,0.603907585144,"(0.01, 0.0, 0.0, 0.0, 0.01, 0.0, 0.0, 0.0, 0.01)",-0.000370932451915,-0.00421805819497,0.00108380510937,"(0.01, 0.0, 0.0, 0.0, 0.01, 0.0, 0.0, 0.0, 0.01)",0.139076855695,-3.30724978477,-9.22504688501,"(0.01, 0.0, 0.0, 0.0, 0.01, 0.0, 0.0, 0.0, 0.01)"
2019/09/05/07:27:25.985273,7009,1567636045,984902238,gx5_link,-0.134601712227,0.106825225055,0.778309643269,0.603908061981,"(0.01, 0.0, 0.0, 0.0, 0.01, 0.0, 0.0, 0.0, 0.01)",0.000670803477988,-0.00308317877352,0.000236063555349,"(0.01, 0.0, 0.0, 0.0, 0.01, 0.0, 0.0, 0.0, 0.01)",0.141088754693,-3.30813037544,-9.22599998116,"(0.01, 0.0, 0.0, 0.0, 0.01, 0.0, 0.0, 0.0, 0.01)"
2019/09/05/07:27:26.003366,7010,1567636046,3024004,gx5_link,-0.134601637721,0.106830447912,0.778307974339,0.603909254074,"(0.01, 0.0, 0.0, 0.0, 0.01, 0.0, 0.0, 0.0, 0.01)",0.00178257504012,-0.00289876572788,9.25558852032e-05,"(0.01, 0.0, 0.0, 0.0, 0.01, 0.0, 0.0, 0.0, 0.01)",0.140344952317,-3.30755910248,-9.22612920463,"(0.01, 0.0, 0.0, 0.0, 0.01, 0.0, 0.0, 0.0, 0.01)"
2019/09/05/07:27:26.015253,7011,1567636046,14904586,gx5_link,-0.134602099657,0.106823682785,0.778306424618,0.603912353516,"(0.01, 0.0, 0.0, 0.0, 0.01, 0.0, 0.0, 0.0, 0.01)",-0.000573083932977,-0.00383197097108,0.00163721386343,"(0.01, 0.0, 0.0, 0.0, 0.01, 0.0, 0.0, 0.0, 0.01)",0.141839062097,-3.3085899666,-9.2276196599,"(0.01, 0.0, 0.0, 0.0, 0.01, 0.0, 0.0, 0.0, 0.01)"
2019/09/05/07:27:26.030430,7012,1567636046,26906917,gx5_link,-0.134603872895,0.106826752424,0.778301119804,0.603918194771,"(0.01, 0.0, 0.0, 0.0, 0.01, 0.0, 0.0, 0.0, 0.01)",0.000410258013289,-0.00372462510131,0.00243631377816,"(0.01, 0.0, 0.0, 0.0, 0.01, 0.0, 0.0, 0.0, 0.01)",0.144828642961,-3.30473314315,-9.22891891122,"(0.01, 0.0, 0.0, 0.0, 0.01, 0.0, 0.0, 0.0, 0.01)"
2019/09/05/07:27:26.046987,7013,1567636046,44846621,gx5_link,-0.134603396058,0.106822542846,0.778302371502,0.60391741991,"(0.01, 0.0, 0.0, 0.0, 0.01, 0.0, 0.0, 0.0, 0.01)",-2.64495029114e-05,-0.00335458177142,0.00151650444604,"(0.01, 0.0, 0.0, 0.0, 0.01, 0.0, 0.0, 0.0, 0.01)",0.142676885873,-3.30630662888,-9.22801317751,"(0.01, 0.0, 0.0, 0.0, 0.01, 0.0, 0.0, 0.0, 0.01)"
2019/09/05/07:27:26.062885,7014,1567636046,56843903,gx5_link,-0.134602546692,0.106822438538,0.778299570084,0.603921353817,"(0.01, 0.0, 0.0, 0.0, 0.01, 0.0, 0.0, 0.0, 0.01)",0.000527602853253,-0.00341672473587,0.00181164511014,"(0.01, 0.0, 0.0, 0.0, 0.01, 0.0, 0.0, 0.0, 0.01)",0.142221945086,-3.30639989197,-9.22742026985,"(0.01, 0.0, 0.0, 0.0, 0.01, 0.0, 0.0, 0.0, 0.01)"
2019/09/05/07:27:26.075228,7015,1567636046,74814503,gx5_link,-0.134603247046,0.106824465096,0.778300583363,0.603919565678,"(0.01, 0.0, 0.0, 0.0, 0.01, 0.0, 0.0, 0.0, 0.01)",0.0008242840413,-0.0025520354975,0.0011774613522,"(0.01, 0.0, 0.0, 0.0, 0.01, 0.0, 0.0, 0.0, 0.01)",0.142387092384,-3.30627563864,-9.22501063228,"(0.01, 0.0, 0.0, 0.0, 0.01, 0.0, 0.0, 0.0, 0.01)"
2019/09/05/07:27:26.087227,7016,1567636046,86808535,gx5_link,-0.134602352977,0.106829129159,0.778293788433,0.6039275527,"(0.01, 0.0, 0.0, 0.0, 0.01, 0.0, 0.0, 0.0, 0.01)",0.0015537928557,-0.00285725807771,0.00203373748809,"(0.01, 0.0, 0.0, 0.0, 0.01, 0.0, 0.0, 0.0, 0.01)",0.141116528967,-3.30809558451,-9.2259818548,"(0.01, 0.0, 0.0, 0.0, 0.01, 0.0, 0.0, 0.0, 0.01)"
2019/09/05/07:27:26.105216,7017,1567636046,104896411,gx5_link,-0.134602829814,0.106828324497,0.778294682503,0.603926479816,"(0.01, 0.0, 0.0, 0.0, 0.01, 0.0, 0.0, 0.0, 0.01)",0.000816119892988,-0.00386245059781,0.000397961965064,"(0.01, 0.0, 0.0, 0.0, 0.01, 0.0, 0.0, 0.0, 0.01)",0.14098858458,-3.30692935735,-9.22543397069,"(0.01, 0.0, 0.0, 0.0, 0.01, 0.0, 0.0, 0.0, 0.01)"
2019/09/05/07:27:26.117864,7018,1567636046,117493217,gx5_link,-0.134599357843,0.106827437878,0.778289854527,0.603933632374,"(0.01, 0.0, 0.0, 0.0, 0.01, 0.0, 0.0, 0.0, 0.01)",3.5480792576e-05,-0.00425804639235,0.00199989881366,"(0.01, 0.0, 0.0, 0.0, 0.01, 0.0, 0.0, 0.0, 0.01)",0.142342123641,-3.30898553073,-9.22413998187,"(0.01, 0.0, 0.0, 0.0, 0.01, 0.0, 0.0, 0.0, 0.01)"
2019/09/05/07:27:26.135368,7019,1567636046,134904976,gx5_link,-0.134596407413,0.106820479035,0.778288245201,0.60393756628,"(0.01, 0.0, 0.0, 0.0, 0.01, 0.0, 0.0, 0.0, 0.01)",-0.000941578997299,-0.00426614517346,0.000858029583469,"(0.01, 0.0, 0.0, 0.0, 0.01, 0.0, 0.0, 0.0, 0.01)",0.142498719385,-3.30640164614,-9.22626836836,"(0.01, 0.0, 0.0, 0.0, 0.01, 0.0, 0.0, 0.0, 0.01)"
2019/09/05/07:27:26.147310,7020,1567636046,146878811,gx5_link,-0.134593039751,0.106822617352,0.778282940388,0.603944778442,"(0.01, 0.0, 0.0, 0.0, 0.01, 0.0, 0.0, 0.0, 0.01)",-0.000241833971813,-0.00312238349579,0.0012951589888,"(0.01, 0.0, 0.0, 0.0, 0.01, 0.0, 0.0, 0.0, 0.01)",0.145316611379,-3.30619582415,-9.2269010371,"(0.01, 0.0, 0.0, 0.0, 0.01, 0.0, 0.0, 0.0, 0.01)"
2019/09/05/07:27:26.165266,7021,1567636046,164851973,gx5_link,-0.134592905641,0.106819316745,0.778285622597,0.603941977024,"(0.01, 0.0, 0.0, 0.0, 0.01, 0.0, 0.0, 0.0, 0.01)",0.000270663585979,-0.00367171713151,0.000715269998182,"(0.01, 0.0, 0.0, 0.0, 0.01, 0.0, 0.0, 0.0, 0.01)",0.142493109712,-3.30843793899,-9.22482702971,"(0.01, 0.0, 0.0, 0.0, 0.01, 0.0, 0.0, 0.0, 0.01)"
2019/09/05/07:27:26.177449,7022,1567636046,176985791,gx5_link,-0.13459199667,0.106824100018,0.778281331062,0.603946805,"(0.01, 0.0, 0.0, 0.0, 0.01, 0.0, 0.0, 0.0, 0.01)",0.000186684905202,-0.00265072775073,0.00071611662861,"(0.01, 0.0, 0.0, 0.0, 0.01, 0.0, 0.0, 0.0, 0.01)",0.143040738003,-3.30723428965,-9.22564622462,"(0.01, 0.0, 0.0, 0.0, 0.01, 0.0, 0.0, 0.0, 0.01)"
2019/09/05/07:27:26.189459,7023,1567636046,188837725,gx5_link,-0.13459649682,0.106828421354,0.778277397156,0.60395014286,"(0.01, 0.0, 0.0, 0.0, 0.01, 0.0, 0.0, 0.0, 0.01)",0.00166029599495,-0.00299211149104,0.00118950626347,"(0.01, 0.0, 0.0, 0.0, 0.01, 0.0, 0.0, 0.0, 0.01)",0.143110731002,-3.30963603348,-9.22658587217,"(0.01, 0.0, 0.0, 0.0, 0.01, 0.0, 0.0, 0.0, 0.01)"
2019/09/05/07:27:26.207341,7024,1567636046,206857158,gx5_link,-0.134595304728,0.106826908886,0.778272330761,0.603957176208,"(0.01, 0.0, 0.0, 0.0, 0.01, 0.0, 0.0, 0.0, 0.01)",0.000524175702594,-0.00414279196411,0.00149828696158,"(0.01, 0.0, 0.0, 0.0, 0.01, 0.0, 0.0, 0.0, 0.01)",0.142725171084,-3.30841133416,-9.22336347163,"(0.01, 0.0, 0.0, 0.0, 0.01, 0.0, 0.0, 0.0, 0.01)"
2019/09/05/07:27:26.219278,7025,1567636046,218897523,gx5_link,-0.134595751762,0.106833606958,0.778262913227,0.603968083858,"(0.01, 0.0, 0.0, 0.0, 0.01, 0.0, 0.0, 0.0, 0.01)",0.00115549366456,-0.00266139721498,0.00244420557283,"(0.01, 0.0, 0.0, 0.0, 0.01, 0.0, 0.0, 0.0, 0.01)",0.145123296948,-3.30688901156,-9.22462705493,"(0.01, 0.0, 0.0, 0.0, 0.01, 0.0, 0.0, 0.0, 0.01)"
2019/09/05/07:27:26.237286,7026,1567636046,236886396,gx5_link,-0.134595885873,0.106832824647,0.778258442879,0.603973925114,"(0.01, 0.0, 0.0, 0.0, 0.01, 0.0, 0.0, 0.0, 0.01)",0.000725160061847,-0.00364750530571,0.00186448101886,"(0.01, 0.0, 0.0, 0.0, 0.01, 0.0, 0.0, 0.0, 0.01)",0.143038088484,-3.30636802465,-9.22395520985,"(0.01, 0.0, 0.0, 0.0, 0.01, 0.0, 0.0, 0.0, 0.01)"
2019/09/05/07:27:26.249262,7027,1567636046,248941747,gx5_link,-0.134595990181,0.106836587191,0.778256058693,0.603976249695,"(0.01, 0.0, 0.0, 0.0, 0.01, 0.0, 0.0, 0.0, 0.01)",0.00105713109951,-0.00295494543388,0.000354548246833,"(0.01, 0.0, 0.0, 0.0, 0.01, 0.0, 0.0, 0.0, 0.01)",0.142482182728,-3.30581692457,-9.22418032765,"(0.01, 0.0, 0.0, 0.0, 0.01, 0.0, 0.0, 0.0, 0.01)"
2019/09/05/07:27:26.267188,7028,1567636046,266801734,gx5_link,-0.134597852826,0.10683504492,0.778257489204,0.603974342346,"(0.01, 0.0, 0.0, 0.0, 0.01, 0.0, 0.0, 0.0, 0.01)",0.000901195686311,-0.00411715684459,0.000614057178609,"(0.01, 0.0, 0.0, 0.0, 0.01, 0.0, 0.0, 0.0, 0.01)",0.141637552427,-3.3093018651,-9.22390375435,"(0.01, 0.0, 0.0, 0.0, 0.01, 0.0, 0.0, 0.0, 0.01)"
2019/09/05/07:27:26.279687,7029,1567636046,278886294,gx5_link,-0.134600400925,0.106835201383,0.778257846832,0.603973329067,"(0.01, 0.0, 0.0, 0.0, 0.01, 0.0, 0.0, 0.0, 0.01)",0.00132803758606,-0.00469244271517,0.000462747906568,"(0.01, 0.0, 0.0, 0.0, 0.01, 0.0, 0.0, 0.0, 0.01)",0.144278575284,-3.31056807965,-9.22515271962,"(0.01, 0.0, 0.0, 0.0, 0.01, 0.0, 0.0, 0.0, 0.01)"
2019/09/05/07:27:26.297436,7030,1567636046,296915001,gx5_link,-0.134601920843,0.106835946441,0.778256475925,0.603974580765,"(0.01, 0.0, 0.0, 0.0, 0.01, 0.0, 0.0, 0.0, 0.01)",0.000550208729692,-0.00402640365064,0.000896349956747,"(0.01, 0.0, 0.0, 0.0, 0.01, 0.0, 0.0, 0.0, 0.01)",0.143515239554,-3.31109286726,-9.22438264132,"(0.01, 0.0, 0.0, 0.0, 0.01, 0.0, 0.0, 0.0, 0.01)"
2019/09/05/07:27:26.315342,7031,1567636046,314734468,gx5_link,-0.134602978826,0.106834791601,0.778254508972,0.60397708416,"(0.01, 0.0, 0.0, 0.0, 0.01, 0.0, 0.0, 0.0, 0.01)",0.000210482277907,-0.00349529786035,0.00142277835403,"(0.01, 0.0, 0.0, 0.0, 0.01, 0.0, 0.0, 0.0, 0.01)",0.143827599641,-3.30744917482,-9.22440836906,"(0.01, 0.0, 0.0, 0.0, 0.01, 0.0, 0.0, 0.0, 0.01)"
2019/09/05/07:27:26.327218,7032,1567636046,326847988,gx5_link,-0.13460367918,0.106838911772,0.778256058693,0.603974103928,"(0.01, 0.0, 0.0, 0.0, 0.01, 0.0, 0.0, 0.0, 0.01)",0.000326297653373,-0.0028498833999,0.000780635862611,"(0.01, 0.0, 0.0, 0.0, 0.01, 0.0, 0.0, 0.0, 0.01)",0.141125911921,-3.30874988794,-9.22309449971,"(0.01, 0.0, 0.0, 0.0, 0.01, 0.0, 0.0, 0.0, 0.01)"
2019/09/05/07:27:26.339360,7033,1567636046,338855044,gx5_link,-0.134601250291,0.106842048466,0.778251290321,0.603980302811,"(0.01, 0.0, 0.0, 0.0, 0.01, 0.0, 0.0, 0.0, 0.01)",0.000420474767452,-0.00277677318081,0.00142568652518,"(0.01, 0.0, 0.0, 0.0, 0.01, 0.0, 0.0, 0.0, 0.01)",0.144259891603,-3.30546872288,-9.22322079957,"(0.01, 0.0, 0.0, 0.0, 0.01, 0.0, 0.0, 0.0, 0.01)"
2019/09/05/07:27:26.357618,7034,1567636046,356974954,gx5_link,-0.134599134326,0.106843180954,0.778249323368,0.603983163834,"(0.01, 0.0, 0.0, 0.0, 0.01, 0.0, 0.0, 0.0, 0.01)",0.000640677753836,-0.00293768732809,0.00169525691308,"(0.01, 0.0, 0.0, 0.0, 0.01, 0.0, 0.0, 0.0, 0.01)",0.143651406588,-3.30500620812,-9.22594501734,"(0.01, 0.0, 0.0, 0.0, 0.01, 0.0, 0.0, 0.0, 0.01)"
2019/09/05/07:27:26.369333,7035,1567636046,368870597,gx5_link,-0.134602293372,0.106841653585,0.778246164322,0.603986799717,"(0.01, 0.0, 0.0, 0.0, 0.01, 0.0, 0.0, 0.0, 0.01)",4.13513625972e-05,-0.00355466571636,0.00140575505793,"(0.01, 0.0, 0.0, 0.0, 0.01, 0.0, 0.0, 0.0, 0.01)",0.141297491156,-3.30505561709,-9.22360028386,"(0.01, 0.0, 0.0, 0.0, 0.01, 0.0, 0.0, 0.0, 0.01)"
2019/09/05/07:27:26.387555,7036,1567636046,386983921,gx5_link,-0.134598508477,0.106842793524,0.778248310089,0.60398465395,"(0.01, 0.0, 0.0, 0.0, 0.01, 0.0, 0.0, 0.0, 0.01)",0.000242576032178,-0.00304370140657,0.000307292037178,"(0.01, 0.0, 0.0, 0.0, 0.01, 0.0, 0.0, 0.0, 0.01)",0.142622762583,-3.30462380022,-9.22584795356,"(0.01, 0.0, 0.0, 0.0, 0.01, 0.0, 0.0, 0.0, 0.01)"
2019/09/05/07:27:26.399309,7037,1567636046,398882401,gx5_link,-0.134600222111,0.106845647097,0.778246700764,0.603985726833,"(0.01, 0.0, 0.0, 0.0, 0.01, 0.0, 0.0, 0.0, 0.01)",0.0012416242389,-0.00382156204432,0.000179702125024,"(0.01, 0.0, 0.0, 0.0, 0.01, 0.0, 0.0, 0.0, 0.01)",0.141021429487,-3.30538890839,-9.22550004423,"(0.01, 0.0, 0.0, 0.0, 0.01, 0.0, 0.0, 0.0, 0.01)"
2019/09/05/07:27:26.417478,7038,1567636046,416828217,gx5_link,-0.134595960379,0.106849499047,0.778244137764,0.603989362717,"(0.01, 0.0, 0.0, 0.0, 0.01, 0.0, 0.0, 0.0, 0.01)",0.00052031193627,-0.00305957556702,0.000910491333343,"(0.01, 0.0, 0.0, 0.0, 0.01, 0.0, 0.0, 0.0, 0.01)",0.141914253635,-3.30685363591,-9.22389556825,"(0.01, 0.0, 0.0, 0.0, 0.01, 0.0, 0.0, 0.0, 0.01)"
2019/09/05/07:27:26.435549,7039,1567636046,434978287,gx5_link,-0.134589865804,0.106847323477,0.77824318409,0.603992283344,"(0.01, 0.0, 0.0, 0.0, 0.01, 0.0, 0.0, 0.0, 0.01)",5.97836115048e-05,-0.00277323322371,0.00109134661034,"(0.01, 0.0, 0.0, 0.0, 0.01, 0.0, 0.0, 0.0, 0.01)",0.143811172619,-3.3070840162,-9.2257052815,"(0.01, 0.0, 0.0, 0.0, 0.01, 0.0, 0.0, 0.0, 0.01)"
2019/09/05/07:27:26.447145,7040,1567636046,446818786,gx5_link,-0.134588778019,0.106846995652,0.77823895216,0.603998124599,"(0.01, 0.0, 0.0, 0.0, 0.01, 0.0, 0.0, 0.0, 0.01)",-0.000440935487859,-0.00280821346678,0.00181992724538,"(0.01, 0.0, 0.0, 0.0, 0.01, 0.0, 0.0, 0.0, 0.01)",0.141261795731,-3.30658787996,-9.22544332623,"(0.01, 0.0, 0.0, 0.0, 0.01, 0.0, 0.0, 0.0, 0.01)"
2019/09/05/07:27:26.465111,7041,1567636046,464848206,gx5_link,-0.134587422013,0.106847055256,0.778246700764,0.603988409042,"(0.01, 0.0, 0.0, 0.0, 0.01, 0.0, 0.0, 0.0, 0.01)",0.000343775493093,-0.00261057773605,0.000931313144974,"(0.01, 0.0, 0.0, 0.0, 0.01, 0.0, 0.0, 0.0, 0.01)",0.144360134806,-3.30698022813,-9.22471242428,"(0.01, 0.0, 0.0, 0.0, 0.01, 0.0, 0.0, 0.0, 0.01)"
2019/09/05/07:27:26.477165,7042,1567636046,476763946,gx5_link,-0.134591147304,0.1068437621,0.778248727322,0.603985548019,"(0.01, 0.0, 0.0, 0.0, 0.01, 0.0, 0.0, 0.0, 0.01)",-0.000685422273818,-0.00391002837569,0.00171509443317,"(0.01, 0.0, 0.0, 0.0, 0.01, 0.0, 0.0, 0.0, 0.01)",0.141511983471,-3.30690158308,-9.22426511228,"(0.01, 0.0, 0.0, 0.0, 0.01, 0.0, 0.0, 0.0, 0.01)"
2019/09/05/07:27:26.489386,7043,1567636046,488867092,gx5_link,-0.134593009949,0.106841363013,0.778251051903,0.603982508183,"(0.01, 0.0, 0.0, 0.0, 0.01, 0.0, 0.0, 0.0, 0.01)",0.000527268915903,-0.00426143361256,0.00141430576332,"(0.01, 0.0, 0.0, 0.0, 0.01, 0.0, 0.0, 0.0, 0.01)",0.14179191892,-3.30576020658,-9.22546905398,"(0.01, 0.0, 0.0, 0.0, 0.01, 0.0, 0.0, 0.0, 0.01)"
2019/09/05/07:27:26.507162,7044,1567636046,506821120,gx5_link,-0.13459469378,0.10684183985,0.778248012066,0.603986024857,"(0.01, 0.0, 0.0, 0.0, 0.01, 0.0, 0.0, 0.0, 0.01)",0.00046495636343,-0.00343021121807,0.00174316880293,"(0.01, 0.0, 0.0, 0.0, 0.01, 0.0, 0.0, 0.0, 0.01)",0.141484309696,-3.30664664447,-9.22575498283,"(0.01, 0.0, 0.0, 0.0, 0.01, 0.0, 0.0, 0.0, 0.01)"
2019/09/05/07:27:26.519582,7045,1567636046,518853786,gx5_link,-0.134595960379,0.106840766966,0.778244435787,0.60399055481,"(0.01, 0.0, 0.0, 0.0, 0.01, 0.0, 0.0, 0.0, 0.01)",6.09107955825e-05,-0.00441503198817,0.00176720379386,"(0.01, 0.0, 0.0, 0.0, 0.01, 0.0, 0.0, 0.0, 0.01)",0.144407862704,-3.30665161461,-9.22699810088,"(0.01, 0.0, 0.0, 0.0, 0.01, 0.0, 0.0, 0.0, 0.01)"
2019/09/05/07:27:26.537469,7046,1567636046,536961648,gx5_link,-0.134595364332,0.106841534376,0.778240263462,0.603995919228,"(0.01, 0.0, 0.0, 0.0, 0.01, 0.0, 0.0, 0.0, 0.01)",3.86732281186e-05,-0.00309022632428,0.00135415117256,"(0.01, 0.0, 0.0, 0.0, 0.01, 0.0, 0.0, 0.0, 0.01)",0.143159637479,-3.30546375275,-9.22744775176,"(0.01, 0.0, 0.0, 0.0, 0.01, 0.0, 0.0, 0.0, 0.01)"
2019/09/05/07:27:26.555324,7047,1567636046,554922525,gx5_link,-0.134595751762,0.106841526926,0.778241276741,0.603994548321,"(0.01, 0.0, 0.0, 0.0, 0.01, 0.0, 0.0, 0.0, 0.01)",0.00101108336821,-0.00377039378509,0.00018598997849,"(0.01, 0.0, 0.0, 0.0, 0.01, 0.0, 0.0, 0.0, 0.01)",0.141982821375,-3.30713196337,-9.22504688501,"(0.01, 0.0, 0.0, 0.0, 0.01, 0.0, 0.0, 0.0, 0.01)"
2019/09/05/07:27:26.567208,7048,1567636046,566832766,gx5_link,-0.134592786431,0.106844142079,0.778236865997,0.604000449181,"(0.01, 0.0, 0.0, 0.0, 0.01, 0.0, 0.0, 0.0, 0.01)",0.000364209816325,-0.00255178147927,0.000447971746325,"(0.01, 0.0, 0.0, 0.0, 0.01, 0.0, 0.0, 0.0, 0.01)",0.142968342165,-3.30599380285,-9.22477382004,"(0.01, 0.0, 0.0, 0.0, 0.01, 0.0, 0.0, 0.0, 0.01)"
2019/09/05/07:27:26.585150,7049,1567636046,584864623,gx5_link,-0.134592458606,0.106844186783,0.778240025043,0.603996396065,"(0.01, 0.0, 0.0, 0.0, 0.01, 0.0, 0.0, 0.0, 0.01)",0.000507372024003,-0.00383044267073,0.00120302801952,"(0.01, 0.0, 0.0, 0.0, 0.01, 0.0, 0.0, 0.0, 0.01)",0.142803971451,-3.30577043921,-9.2236745435,"(0.01, 0.0, 0.0, 0.0, 0.01, 0.0, 0.0, 0.0, 0.01)"
2019/09/05/07:27:26.597237,7050,1567636046,596927211,gx5_link,-0.134594544768,0.106838442385,0.778236627579,0.604001283646,"(0.01, 0.0, 0.0, 0.0, 0.01, 0.0, 0.0, 0.0, 0.01)",0.000182563118869,-0.00447292625904,0.00192846299615,"(0.01, 0.0, 0.0, 0.0, 0.01, 0.0, 0.0, 0.0, 0.01)",0.144749212191,-3.30652385294,-9.22532170415,"(0.01, 0.0, 0.0, 0.0, 0.01, 0.0, 0.0, 0.0, 0.01)"
2019/09/05/07:27:26.615254,7051,1567636046,614917160,gx5_link,-0.134599521756,0.106839254498,0.778236210346,0.604000627995,"(0.01, 0.0, 0.0, 0.0, 0.01, 0.0, 0.0, 0.0, 0.01)",0.00107650412247,-0.00431603519246,0.000743309385143,"(0.01, 0.0, 0.0, 0.0, 0.01, 0.0, 0.0, 0.0, 0.01)",0.142734215995,-3.30920363188,-9.22584561467,"(0.01, 0.0, 0.0, 0.0, 0.01, 0.0, 0.0, 0.0, 0.01)"
2019/09/05/07:27:26.627318,7052,1567636046,626915380,gx5_link,-0.134598121047,0.106840103865,0.778235554695,0.604001581669,"(0.01, 0.0, 0.0, 0.0, 0.01, 0.0, 0.0, 0.0, 0.01)",0.000139642652357,-0.00395290739834,0.000205685035326,"(0.01, 0.0, 0.0, 0.0, 0.01, 0.0, 0.0, 0.0, 0.01)",0.142838634476,-3.30767078429,-9.22411249995,"(0.01, 0.0, 0.0, 0.0, 0.01, 0.0, 0.0, 0.0, 0.01)"
2019/09/05/07:27:26.639313,7053,1567636046,639029800,gx5_link,-0.134598597884,0.106842942536,0.778236150742,0.604000270367,"(0.01, 0.0, 0.0, 0.0, 0.01, 0.0, 0.0, 0.0, 0.01)",0.00097168283537,-0.00363886775449,-7.1114016464e-05,"(0.01, 0.0, 0.0, 0.0, 0.01, 0.0, 0.0, 0.0, 0.01)",0.142338880263,-3.3069863677,-9.22471008539,"(0.01, 0.0, 0.0, 0.0, 0.01, 0.0, 0.0, 0.0, 0.01)"
2019/09/05/07:27:26.657176,7054,1567636046,656846192,gx5_link,-0.134594962001,0.106849722564,0.778230965137,0.604006528854,"(0.01, 0.0, 0.0, 0.0, 0.01, 0.0, 0.0, 0.0, 0.01)",0.000177421636181,-0.00302680907771,0.00147534965072,"(0.01, 0.0, 0.0, 0.0, 0.01, 0.0, 0.0, 0.0, 0.01)",0.144320958462,-3.30895307869,-9.22591812015,"(0.01, 0.0, 0.0, 0.0, 0.01, 0.0, 0.0, 0.0, 0.01)"
2019/09/05/07:27:26.669131,7055,1567636046,668840675,gx5_link,-0.1345936656,0.106849938631,0.778229117393,0.604009151459,"(0.01, 0.0, 0.0, 0.0, 0.01, 0.0, 0.0, 0.0, 0.01)",0.000176604284206,-0.00274786842056,0.00221065292135,"(0.01, 0.0, 0.0, 0.0, 0.01, 0.0, 0.0, 0.0, 0.01)",0.142409777753,-3.30735298812,-9.22608651996,"(0.01, 0.0, 0.0, 0.0, 0.01, 0.0, 0.0, 0.0, 0.01)"
2019/09/05/07:27:26.687304,7056,1567636046,686874094,gx5_link,-0.134595036507,0.106853358448,0.778226554394,0.60401147604,"(0.01, 0.0, 0.0, 0.0, 0.01, 0.0, 0.0, 0.0, 0.01)",0.000530312303454,-0.00247695134021,0.0010549123399,"(0.01, 0.0, 0.0, 0.0, 0.01, 0.0, 0.0, 0.0, 0.01)",0.14241162328,-3.30744595885,-9.22822893977,"(0.01, 0.0, 0.0, 0.0, 0.01, 0.0, 0.0, 0.0, 0.01)"
2019/09/05/07:27:26.705123,7057,1567636046,704773278,gx5_link,-0.134596869349,0.106854811311,0.77822381258,0.604014337063,"(0.01, 0.0, 0.0, 0.0, 0.01, 0.0, 0.0, 0.0, 0.01)",0.000650606700219,-0.00349204195663,0.00100684026256,"(0.01, 0.0, 0.0, 0.0, 0.01, 0.0, 0.0, 0.0, 0.01)",0.141418190477,-3.304887802,-9.22446450233,"(0.01, 0.0, 0.0, 0.0, 0.01, 0.0, 0.0, 0.0, 0.01)"
2019/09/05/07:27:26.717186,7058,1567636046,716825354,gx5_link,-0.134599074721,0.106857098639,0.778223276138,0.604014277458,"(0.01, 0.0, 0.0, 0.0, 0.01, 0.0, 0.0, 0.0, 0.01)",0.000974098918959,-0.00388615089469,0.000421106960857,"(0.01, 0.0, 0.0, 0.0, 0.01, 0.0, 0.0, 0.0, 0.01)",0.143548486456,-3.30751174003,-9.22359034359,"(0.01, 0.0, 0.0, 0.0, 0.01, 0.0, 0.0, 0.0, 0.01)"
2019/09/05/07:27:26.735174,7059,1567636046,734870497,gx5_link,-0.13459636271,0.106854103506,0.778227508068,0.604009926319,"(0.01, 0.0, 0.0, 0.0, 0.01, 0.0, 0.0, 0.0, 0.01)",-0.000331317743985,-0.00300767412409,0.000578111386858,"(0.01, 0.0, 0.0, 0.0, 0.01, 0.0, 0.0, 0.0, 0.01)",0.143456940986,-3.30679750264,-9.22512757659,"(0.01, 0.0, 0.0, 0.0, 0.01, 0.0, 0.0, 0.0, 0.01)"
2019/09/05/07:27:26.747314,7060,1567636046,746851381,gx5_link,-0.134601950645,0.106849715114,0.77822726965,0.604009687901,"(0.01, 0.0, 0.0, 0.0, 0.01, 0.0, 0.0, 0.0, 0.01)",0.000931266346015,-0.00459016300738,0.00157512782607,"(0.01, 0.0, 0.0, 0.0, 0.01, 0.0, 0.0, 0.0, 0.01)",0.143105039103,-3.30680334985,-9.2244446218,"(0.01, 0.0, 0.0, 0.0, 0.01, 0.0, 0.0, 0.0, 0.01)"
2019/09/05/07:27:26.765113,7061,1567636046,764726417,gx5_link,-0.134599998593,0.106848090887,0.778228461742,0.604008853436,"(0.01, 0.0, 0.0, 0.0, 0.01, 0.0, 0.0, 0.0, 0.01)",-0.000272415694781,-0.00262839114293,0.0014139066916,"(0.01, 0.0, 0.0, 0.0, 0.01, 0.0, 0.0, 0.0, 0.01)",0.141993209319,-3.3082566753,-9.22523925841,"(0.01, 0.0, 0.0, 0.0, 0.01, 0.0, 0.0, 0.0, 0.01)"
2019/09/05/07:27:26.777188,7062,1567636046,776802366,gx5_link,-0.134601339698,0.106844350696,0.778227627277,0.604010403156,"(0.01, 0.0, 0.0, 0.0, 0.01, 0.0, 0.0, 0.0, 0.01)",-3.61941565643e-05,-0.00372589100152,0.00110251759179,"(0.01, 0.0, 0.0, 0.0, 0.01, 0.0, 0.0, 0.0, 0.01)",0.141660840791,-3.30607595623,-9.2243306011,"(0.01, 0.0, 0.0, 0.0, 0.01, 0.0, 0.0, 0.0, 0.01)"
2019/09/05/07:27:26.789385,7063,1567636046,789016951,gx5_link,-0.134598180652,0.106843940914,0.778223633766,0.604016363621,"(0.01, 0.0, 0.0, 0.0, 0.01, 0.0, 0.0, 0.0, 0.01)",0.000523797178175,-0.00297317421064,0.00178341753781,"(0.01, 0.0, 0.0, 0.0, 0.01, 0.0, 0.0, 0.0, 0.01)",0.141163937096,-3.30575991422,-9.22742260873,"(0.01, 0.0, 0.0, 0.0, 0.01, 0.0, 0.0, 0.0, 0.01)"
2019/09/05/07:27:26.807352,7064,1567636046,807041871,gx5_link,-0.134602084756,0.106842674315,0.778226435184,0.604012072086,"(0.01, 0.0, 0.0, 0.0, 0.01, 0.0, 0.0, 0.0, 0.01)",0.000108717431431,-0.00364109035581,0.00143734761514,"(0.01, 0.0, 0.0, 0.0, 0.01, 0.0, 0.0, 0.0, 0.01)",0.143000684576,-3.30517314613,-9.22416395545,"(0.01, 0.0, 0.0, 0.0, 0.01, 0.0, 0.0, 0.0, 0.01)"
2019/09/05/07:27:26.819299,7065,1567636046,818911192,gx5_link,-0.134603649378,0.106842823327,0.778229653835,0.604007482529,"(0.01, 0.0, 0.0, 0.0, 0.01, 0.0, 0.0, 0.0, 0.01)",0.000513584294822,-0.00322844344191,0.00121191772632,"(0.01, 0.0, 0.0, 0.0, 0.01, 0.0, 0.0, 0.0, 0.01)",0.141977787288,-3.30663845837,-9.2246533674,"(0.01, 0.0, 0.0, 0.0, 0.01, 0.0, 0.0, 0.0, 0.01)"
2019/09/05/07:27:26.837280,7066,1567636046,837041301,gx5_link,-0.134599834681,0.106840781868,0.778223216534,0.604017019272,"(0.01, 0.0, 0.0, 0.0, 0.01, 0.0, 0.0, 0.0, 0.01)",-0.000455033965409,-0.00339796114713,0.00157987710554,"(0.01, 0.0, 0.0, 0.0, 0.01, 0.0, 0.0, 0.0, 0.01)",0.142361172773,-3.30805114567,-9.22298164845,"(0.01, 0.0, 0.0, 0.0, 0.01, 0.0, 0.0, 0.0, 0.01)"
2019/09/05/07:27:26.849331,7067,1567636046,848920633,gx5_link,-0.134599685669,0.106841087341,0.778222560883,0.604017794132,"(0.01, 0.0, 0.0, 0.0, 0.01, 0.0, 0.0, 0.0, 0.01)",0.000162515061675,-0.00407469179481,0.00183982856106,"(0.01, 0.0, 0.0, 0.0, 0.01, 0.0, 0.0, 0.0, 0.01)",0.144882373391,-3.30672733605,-9.2278284055,"(0.01, 0.0, 0.0, 0.0, 0.01, 0.0, 0.0, 0.0, 0.01)"
2019/09/05/07:27:26.867346,7068,1567636046,866871124,gx5_link,-0.134599193931,0.106839306653,0.778215706348,0.604027092457,"(0.01, 0.0, 0.0, 0.0, 0.01, 0.0, 0.0, 0.0, 0.01)",0.000112305933726,-0.00291544361971,0.00210799626075,"(0.01, 0.0, 0.0, 0.0, 0.01, 0.0, 0.0, 0.0, 0.01)",0.145273798797,-3.30851980001,-9.22321670651,"(0.01, 0.0, 0.0, 0.0, 0.01, 0.0, 0.0, 0.0, 0.01)"
2019/09/05/07:27:26.885362,7069,1567636046,884944601,gx5_link,-0.134597033262,0.106839992106,0.778214752674,0.604028642178,"(0.01, 0.0, 0.0, 0.0, 0.01, 0.0, 0.0, 0.0, 0.01)",0.000648211163934,-0.00390599132515,0.00173154869117,"(0.01, 0.0, 0.0, 0.0, 0.01, 0.0, 0.0, 0.0, 0.01)",0.143284420716,-3.30826895446,-9.22542519987,"(0.01, 0.0, 0.0, 0.0, 0.01, 0.0, 0.0, 0.0, 0.01)"
2019/09/05/07:27:26.897490,7070,1567636046,896846694,gx5_link,-0.134596392512,0.106841377914,0.778212428093,0.604031562805,"(0.01, 0.0, 0.0, 0.0, 0.01, 0.0, 0.0, 0.0, 0.01)",0.000984162208624,-0.00404946180061,0.000485316151753,"(0.01, 0.0, 0.0, 0.0, 0.01, 0.0, 0.0, 0.0, 0.01)",0.143913361849,-3.30780936331,-9.22560763299,"(0.01, 0.0, 0.0, 0.0, 0.01, 0.0, 0.0, 0.0, 0.01)"
2019/09/05/07:27:26.921155,7071,1567636046,920774328,gx5_link,-0.134598895907,0.106839410961,0.778213381767,0.604030132294,"(0.01, 0.0, 0.0, 0.0, 0.01, 0.0, 0.0, 0.0, 0.01)",0.000997892930172,-0.00368394539692,0.00079119525617,"(0.01, 0.0, 0.0, 0.0, 0.01, 0.0, 0.0, 0.0, 0.01)",0.145551916128,-3.30541726738,-9.22921828866,"(0.01, 0.0, 0.0, 0.0, 0.01, 0.0, 0.0, 0.0, 0.01)"
2019/09/05/07:27:26.927186,7072,1567636046,926767732,gx5_link,-0.134601786733,0.106841363013,0.778212726116,0.604030072689,"(0.01, 0.0, 0.0, 0.0, 0.01, 0.0, 0.0, 0.0, 0.01)",0.000961860176176,-0.00339573505335,0.000284506357275,"(0.01, 0.0, 0.0, 0.0, 0.01, 0.0, 0.0, 0.0, 0.01)",0.143595474316,-3.30644550025,-9.22612043381,"(0.01, 0.0, 0.0, 0.0, 0.01, 0.0, 0.0, 0.0, 0.01)"
2019/09/05/07:27:26.939094,7073,1567636046,938779875,gx5_link,-0.134599596262,0.106840148568,0.778208434582,0.604036211967,"(0.01, 0.0, 0.0, 0.0, 0.01, 0.0, 0.0, 0.0, 0.01)",7.14076741133e-05,-0.00345805450343,0.00222418643534,"(0.01, 0.0, 0.0, 0.0, 0.01, 0.0, 0.0, 0.0, 0.01)",0.141190359201,-3.30565904975,-9.22619176984,"(0.01, 0.0, 0.0, 0.0, 0.01, 0.0, 0.0, 0.0, 0.01)"
2019/09/05/07:27:26.957069,7074,1567636046,956730766,gx5_link,-0.134600177407,0.106836266816,0.778212368488,0.604031682014,"(0.01, 0.0, 0.0, 0.0, 0.01, 0.0, 0.0, 0.0, 0.01)",-0.000297012476949,-0.00468687620014,0.000621806713752,"(0.01, 0.0, 0.0, 0.0, 0.01, 0.0, 0.0, 0.0, 0.01)",0.143234098116,-3.30798711866,-9.22654201806,"(0.01, 0.0, 0.0, 0.0, 0.01, 0.0, 0.0, 0.0, 0.01)"
2019/09/05/07:27:26.971772,7075,1567636046,971300864,gx5_link,-0.134600177407,0.106836371124,0.778210103512,0.604034602642,"(0.01, 0.0, 0.0, 0.0, 0.01, 0.0, 0.0, 0.0, 0.01)",-0.000393751484808,-0.00333326868713,0.00163719803095,"(0.01, 0.0, 0.0, 0.0, 0.01, 0.0, 0.0, 0.0, 0.01)",0.145065363832,-3.30727025002,-9.22742377818,"(0.01, 0.0, 0.0, 0.0, 0.01, 0.0, 0.0, 0.0, 0.01)"
2019/09/05/07:27:26.987334,7076,1567636046,987046400,gx5_link,-0.134599998593,0.106841832399,0.77820956707,0.604034423828,"(0.01, 0.0, 0.0, 0.0, 0.01, 0.0, 0.0, 0.0, 0.01)",0.000526634743437,-0.00238586287014,0.00146464502905,"(0.01, 0.0, 0.0, 0.0, 0.01, 0.0, 0.0, 0.0, 0.01)",0.145210977774,-3.30448200524,-9.22616019487,"(0.01, 0.0, 0.0, 0.0, 0.01, 0.0, 0.0, 0.0, 0.01)"
2019/09/05/07:27:27.005017,7077,1567636047,4711652,gx5_link,-0.134602382779,0.106843180954,0.778211236,0.604031443596,"(0.01, 0.0, 0.0, 0.0, 0.01, 0.0, 0.0, 0.0, 0.01)",0.00140658812597,-0.0029601205606,0.000655051437207,"(0.01, 0.0, 0.0, 0.0, 0.01, 0.0, 0.0, 0.0, 0.01)",0.145197273362,-3.30744742066,-9.2241002208,"(0.01, 0.0, 0.0, 0.0, 0.01, 0.0, 0.0, 0.0, 0.01)"
2019/09/05/07:27:27.017134,7078,1567636047,16750221,gx5_link,-0.134601429105,0.106844648719,0.778210997581,0.604031682014,"(0.01, 0.0, 0.0, 0.0, 0.01, 0.0, 0.0, 0.0, 0.01)",0.000839219545014,-0.00246812473051,0.00073446915485,"(0.01, 0.0, 0.0, 0.0, 0.01, 0.0, 0.0, 0.0, 0.01)",0.142913853424,-3.30480857223,-9.22624088645,"(0.01, 0.0, 0.0, 0.0, 0.01, 0.0, 0.0, 0.0, 0.01)"
2019/09/05/07:27:27.035212,7079,1567636047,34818580,gx5_link,-0.134596124291,0.106845140457,0.778210937977,0.604032874107,"(0.01, 0.0, 0.0, 0.0, 0.01, 0.0, 0.0, 0.0, 0.01)",-0.000181155832252,-0.00282100052573,0.000726524973288,"(0.01, 0.0, 0.0, 0.0, 0.01, 0.0, 0.0, 0.0, 0.01)",0.144416880207,-3.30570992053,-9.22452882171,"(0.01, 0.0, 0.0, 0.0, 0.01, 0.0, 0.0, 0.0, 0.01)"
2019/09/05/07:27:27.047090,7080,1567636047,46764471,gx5_link,-0.134595707059,0.106847397983,0.778209269047,0.604034781456,"(0.01, 0.0, 0.0, 0.0, 0.01, 0.0, 0.0, 0.0, 0.01)",0.000521330337506,-0.00306060141884,0.000742717122193,"(0.01, 0.0, 0.0, 0.0, 0.01, 0.0, 0.0, 0.0, 0.01)",0.142071671644,-3.30508660734,-9.22415693879,"(0.01, 0.0, 0.0, 0.0, 0.01, 0.0, 0.0, 0.0, 0.01)"
2019/09/05/07:27:27.071657,7081,1567636047,71193984,gx5_link,-0.134594663978,0.106847390532,0.778211772442,0.604031741619,"(0.01, 0.0, 0.0, 0.0, 0.01, 0.0, 0.0, 0.0, 0.01)",0.000370324327378,-0.0030351607129,0.000787879340351,"(0.01, 0.0, 0.0, 0.0, 0.01, 0.0, 0.0, 0.0, 0.01)",0.140897706058,-3.30577921003,-9.22513634741,"(0.01, 0.0, 0.0, 0.0, 0.01, 0.0, 0.0, 0.0, 0.01)"
2019/09/05/07:27:27.077159,7082,1567636047,76750910,gx5_link,-0.134591341019,0.106850959361,0.778210163116,0.604033827782,"(0.01, 0.0, 0.0, 0.0, 0.01, 0.0, 0.0, 0.0, 0.01)",-0.000284419220407,-0.00236614234746,0.000586492940784,"(0.01, 0.0, 0.0, 0.0, 0.01, 0.0, 0.0, 0.0, 0.01)",0.143156942278,-3.30588095158,-9.22757872939,"(0.01, 0.0, 0.0, 0.0, 0.01, 0.0, 0.0, 0.0, 0.01)"
2019/09/05/07:27:27.089094,7083,1567636047,88708000,gx5_link,-0.134594559669,0.106849245727,0.778203189373,0.604042470455,"(0.01, 0.0, 0.0, 0.0, 0.01, 0.0, 0.0, 0.0, 0.01)",0.000650598085485,-0.00357731827535,0.0017719528405,"(0.01, 0.0, 0.0, 0.0, 0.01, 0.0, 0.0, 0.0, 0.01)",0.13949013507,-3.30619026929,-9.22564096212,"(0.01, 0.0, 0.0, 0.0, 0.01, 0.0, 0.0, 0.0, 0.01)"
2019/09/05/07:27:27.107070,7084,1567636047,106763060,gx5_link,-0.134596973658,0.106844037771,0.778203547001,0.604042470455,"(0.01, 0.0, 0.0, 0.0, 0.01, 0.0, 0.0, 0.0, 0.01)",0.000110524066258,-0.00449081230909,0.00155818206258,"(0.01, 0.0, 0.0, 0.0, 0.01, 0.0, 0.0, 0.0, 0.01)",0.1415919076,-3.30539767921,-9.22467266321,"(0.01, 0.0, 0.0, 0.0, 0.01, 0.0, 0.0, 0.0, 0.01)"
2019/09/05/07:27:27.119172,7085,1567636047,118745060,gx5_link,-0.134596958756,0.106842651963,0.778206586838,0.604038774967,"(0.01, 0.0, 0.0, 0.0, 0.01, 0.0, 0.0, 0.0, 0.01)",-0.000163713251823,-0.00367350992747,0.000316631165333,"(0.01, 0.0, 0.0, 0.0, 0.01, 0.0, 0.0, 0.0, 0.01)",0.140273817284,-3.30688316435,-9.22235190332,"(0.01, 0.0, 0.0, 0.0, 0.01, 0.0, 0.0, 0.0, 0.01)"
2019/09/05/07:27:27.137053,7086,1567636047,136714266,gx5_link,-0.134599000216,0.106844961643,0.778207361698,0.604036867619,"(0.01, 0.0, 0.0, 0.0, 0.01, 0.0, 0.0, 0.0, 0.01)",0.000112510344479,-0.00342921563424,0.000163273201906,"(0.01, 0.0, 0.0, 0.0, 0.01, 0.0, 0.0, 0.0, 0.01)",0.142578552151,-3.30757986009,-9.223967489,"(0.01, 0.0, 0.0, 0.0, 0.01, 0.0, 0.0, 0.0, 0.01)"
2019/09/05/07:27:27.149127,7087,1567636047,148774758,gx5_link,-0.13459636271,0.106846868992,0.778210580349,0.604032993317,"(0.01, 0.0, 0.0, 0.0, 0.01, 0.0, 0.0, 0.0, 0.01)",0.000177232606802,-0.00257315835916,-2.71742464975e-07,"(0.01, 0.0, 0.0, 0.0, 0.01, 0.0, 0.0, 0.0, 0.01)",0.140495929252,-3.30642152667,-9.2267601192,"(0.01, 0.0, 0.0, 0.0, 0.01, 0.0, 0.0, 0.0, 0.01)"
2019/09/05/07:27:27.167169,7088,1567636047,166734753,gx5_link,-0.134598225355,0.106841944158,0.778211116791,0.604032695293,"(0.01, 0.0, 0.0, 0.0, 0.01, 0.0, 0.0, 0.0, 0.01)",3.36668454111e-05,-0.00449524633586,0.00103882444091,"(0.01, 0.0, 0.0, 0.0, 0.01, 0.0, 0.0, 0.0, 0.01)",0.141555179777,-3.30639404476,-9.22288224578,"(0.01, 0.0, 0.0, 0.0, 0.01, 0.0, 0.0, 0.0, 0.01)"
2019/09/05/07:27:27.179109,7089,1567636047,178749475,gx5_link,-0.134600386024,0.106840953231,0.778208076954,0.604036390781,"(0.01, 0.0, 0.0, 0.0, 0.01, 0.0, 0.0, 0.0, 0.01)",0.00058434397215,-0.00378157943487,0.000625456450507,"(0.01, 0.0, 0.0, 0.0, 0.01, 0.0, 0.0, 0.0, 0.01)",0.138524458269,-3.30709512591,-9.22361782551,"(0.01, 0.0, 0.0, 0.0, 0.01, 0.0, 0.0, 0.0, 0.01)"
2019/09/05/07:27:27.197093,7090,1567636047,196744217,gx5_link,-0.134601309896,0.106843978167,0.778204798698,0.604039788246,"(0.01, 0.0, 0.0, 0.0, 0.01, 0.0, 0.0, 0.0, 0.01)",0.00080307474127,-0.0035772845149,0.00167189980857,"(0.01, 0.0, 0.0, 0.0, 0.01, 0.0, 0.0, 0.0, 0.01)",0.139283582177,-3.30979566246,-9.22421248734,"(0.01, 0.0, 0.0, 0.0, 0.01, 0.0, 0.0, 0.0, 0.01)"
2019/09/05/07:27:27.215031,7091,1567636047,214652118,gx5_link,-0.134599640965,0.106842249632,0.778202354908,0.604043662548,"(0.01, 0.0, 0.0, 0.0, 0.01, 0.0, 0.0, 0.0, 0.01)",-0.000373790215235,-0.00348231941462,0.00139561586548,"(0.01, 0.0, 0.0, 0.0, 0.01, 0.0, 0.0, 0.0, 0.01)",0.141551781083,-3.3062066415,-9.22773601949,"(0.01, 0.0, 0.0, 0.0, 0.01, 0.0, 0.0, 0.0, 0.01)"
2019/09/05/07:27:27.227270,7092,1567636047,227033490,gx5_link,-0.134596630931,0.106841236353,0.778205275536,0.604040801525,"(0.01, 0.0, 0.0, 0.0, 0.01, 0.0, 0.0, 0.0, 0.01)",-0.000397556083044,-0.00253888824955,0.00110979320016,"(0.01, 0.0, 0.0, 0.0, 0.01, 0.0, 0.0, 0.0, 0.01)",0.142880076617,-3.30808593661,-9.22635724604,"(0.01, 0.0, 0.0, 0.0, 0.01, 0.0, 0.0, 0.0, 0.01)"
2019/09/05/07:27:27.245074,7093,1567636047,244712728,gx5_link,-0.134598150849,0.106839932501,0.778207421303,0.604037940502,"(0.01, 0.0, 0.0, 0.0, 0.01, 0.0, 0.0, 0.0, 0.01)",0.000413662579376,-0.00300395232625,0.00116397207603,"(0.01, 0.0, 0.0, 0.0, 0.01, 0.0, 0.0, 0.0, 0.01)",0.145922437739,-3.30513367742,-9.22749920726,"(0.01, 0.0, 0.0, 0.0, 0.01, 0.0, 0.0, 0.0, 0.01)"
2019/09/05/07:27:27.257091,7094,1567636047,256746723,gx5_link,-0.134601071477,0.106834188104,0.778204977512,0.604041397572,"(0.01, 0.0, 0.0, 0.0, 0.01, 0.0, 0.0, 0.0, 0.01)",4.81901515741e-05,-0.00504923891276,0.00160622014664,"(0.01, 0.0, 0.0, 0.0, 0.01, 0.0, 0.0, 0.0, 0.01)",0.147132692607,-3.30501497895,-9.22674784005,"(0.01, 0.0, 0.0, 0.0, 0.01, 0.0, 0.0, 0.0, 0.01)"
2019/09/05/07:27:27.275076,7095,1567636047,274728804,gx5_link,-0.13460084796,0.106833405793,0.778206288815,0.60403996706,"(0.01, 0.0, 0.0, 0.0, 0.01, 0.0, 0.0, 0.0, 0.01)",0.000618021877017,-0.00342217157595,0.000843717367388,"(0.01, 0.0, 0.0, 0.0, 0.01, 0.0, 0.0, 0.0, 0.01)",0.143223207677,-3.3080628401,-9.2262666142,"(0.01, 0.0, 0.0, 0.0, 0.01, 0.0, 0.0, 0.0, 0.01)"
2019/09/05/07:27:27.287072,7096,1567636047,286743626,gx5_link,-0.134603813291,0.106833852828,0.778201937675,0.604044795036,"(0.01, 0.0, 0.0, 0.0, 0.01, 0.0, 0.0, 0.0, 0.01)",0.00083373876987,-0.00306551391259,0.00209205015562,"(0.01, 0.0, 0.0, 0.0, 0.01, 0.0, 0.0, 0.0, 0.01)",0.144168939991,-3.3072331202,-9.22474224508,"(0.01, 0.0, 0.0, 0.0, 0.01, 0.0, 0.0, 0.0, 0.01)"
2019/09/05/07:27:27.305034,7097,1567636047,304770315,gx5_link,-0.134603634477,0.106833435595,0.778205931187,0.604039669037,"(0.01, 0.0, 0.0, 0.0, 0.01, 0.0, 0.0, 0.0, 0.01)",0.000423605320975,-0.00324427941814,0.000462825992145,"(0.01, 0.0, 0.0, 0.0, 0.01, 0.0, 0.0, 0.0, 0.01)",0.141779996082,-3.30873088449,-9.22358391166,"(0.01, 0.0, 0.0, 0.0, 0.01, 0.0, 0.0, 0.0, 0.01)"
2019/09/05/07:27:27.317114,7098,1567636047,316735742,gx5_link,-0.134604439139,0.106836512685,0.778205096722,0.604040086269,"(0.01, 0.0, 0.0, 0.0, 0.01, 0.0, 0.0, 0.0, 0.01)",0.000471511681098,-0.0034369439818,0.000106764680822,"(0.01, 0.0, 0.0, 0.0, 0.01, 0.0, 0.0, 0.0, 0.01)",0.13959766902,-3.30953399956,-9.22483170748,"(0.01, 0.0, 0.0, 0.0, 0.01, 0.0, 0.0, 0.0, 0.01)"
2019/09/05/07:27:27.335117,7099,1567636047,334784016,gx5_link,-0.134604692459,0.106838844717,0.778201520443,0.604044318199,"(0.01, 0.0, 0.0, 0.0, 0.01, 0.0, 0.0, 0.0, 0.01)",0.000951754744165,-0.00288984109648,0.000796079053544,"(0.01, 0.0, 0.0, 0.0, 0.01, 0.0, 0.0, 0.0, 0.01)",0.14284934219,-3.30612244159,-9.22822601616,"(0.01, 0.0, 0.0, 0.0, 0.01, 0.0, 0.0, 0.0, 0.01)"
2019/09/05/07:27:27.347077,7100,1567636047,346736445,gx5_link,-0.134598627687,0.106842920184,0.778198480606,0.604048728943,"(0.01, 0.0, 0.0, 0.0, 0.01, 0.0, 0.0, 0.0, 0.01)",0.000359808036592,-0.00262881489471,0.0012272184249,"(0.01, 0.0, 0.0, 0.0, 0.01, 0.0, 0.0, 0.0, 0.01)",0.144547200026,-3.30633878857,-9.22633678079,"(0.01, 0.0, 0.0, 0.0, 0.01, 0.0, 0.0, 0.0, 0.01)"
2019/09/05/07:27:27.364976,7101,1567636047,364699978,gx5_link,-0.134601563215,0.106834195554,0.778199911118,0.604047834873,"(0.01, 0.0, 0.0, 0.0, 0.01, 0.0, 0.0, 0.0, 0.01)",-0.000240765846684,-0.00443951226771,0.00216983933933,"(0.01, 0.0, 0.0, 0.0, 0.01, 0.0, 0.0, 0.0, 0.01)",0.143982961988,-3.30735561937,-9.22454285502,"(0.01, 0.0, 0.0, 0.0, 0.01, 0.0, 0.0, 0.0, 0.01)"
2019/09/05/07:27:27.377021,7102,1567636047,376710875,gx5_link,-0.134592577815,0.106834411621,0.778201758862,0.604047358036,"(0.01, 0.0, 0.0, 0.0, 0.01, 0.0, 0.0, 0.0, 0.01)",-0.00095640134532,-0.0027389919851,0.000558674277272,"(0.01, 0.0, 0.0, 0.0, 0.01, 0.0, 0.0, 0.0, 0.01)",0.143452537302,-3.3073874867,-9.22506676555,"(0.01, 0.0, 0.0, 0.0, 0.01, 0.0, 0.0, 0.0, 0.01)"
2019/09/05/07:27:27.389047,7103,1567636047,388748908,gx5_link,-0.134593397379,0.106831632555,0.778202533722,0.60404676199,"(0.01, 0.0, 0.0, 0.0, 0.01, 0.0, 0.0, 0.0, 0.01)",0.000530062010512,-0.00345429591835,0.00057789956918,"(0.01, 0.0, 0.0, 0.0, 0.01, 0.0, 0.0, 0.0, 0.01)",0.142483708486,-3.30777281821,-9.22425809562,"(0.01, 0.0, 0.0, 0.0, 0.01, 0.0, 0.0, 0.0, 0.01)"
2019/09/05/07:27:27.407011,7104,1567636047,406716965,gx5_link,-0.134591221809,0.106831237674,0.778204083443,0.604045271873,"(0.01, 0.0, 0.0, 0.0, 0.01, 0.0, 0.0, 0.0, 0.01)",-5.89808041696e-05,-0.00302655086853,0.00126917520538,"(0.01, 0.0, 0.0, 0.0, 0.01, 0.0, 0.0, 0.0, 0.01)",0.141596430056,-3.30875105739,-9.22168181241,"(0.01, 0.0, 0.0, 0.0, 0.01, 0.0, 0.0, 0.0, 0.01)"
2019/09/05/07:27:27.419024,7105,1567636047,418734512,gx5_link,-0.134592622519,0.106829702854,0.778202772141,0.604046940804,"(0.01, 0.0, 0.0, 0.0, 0.01, 0.0, 0.0, 0.0, 0.01)",0.000465795688797,-0.00401210132986,0.00139082793612,"(0.01, 0.0, 0.0, 0.0, 0.01, 0.0, 0.0, 0.0, 0.01)",0.144366941331,-3.30750296921,-9.22610990882,"(0.01, 0.0, 0.0, 0.0, 0.01, 0.0, 0.0, 0.0, 0.01)"
2019/09/05/07:27:27.436980,7106,1567636047,436698382,gx5_link,-0.134593382478,0.106832258403,0.778200924397,0.604048609734,"(0.01, 0.0, 0.0, 0.0, 0.01, 0.0, 0.0, 0.0, 0.01)",0.000615824363194,-0.00336440070532,0.00118951697368,"(0.01, 0.0, 0.0, 0.0, 0.01, 0.0, 0.0, 0.0, 0.01)",0.143600225179,-3.30634638995,-9.22557138026,"(0.01, 0.0, 0.0, 0.0, 0.01, 0.0, 0.0, 0.0, 0.01)"
2019/09/05/07:27:27.448994,7107,1567636047,448707793,gx5_link,-0.134594365954,0.106831014156,0.77820032835,0.604049444199,"(0.01, 0.0, 0.0, 0.0, 0.01, 0.0, 0.0, 0.0, 0.01)",0.00106647028588,-0.00338823534548,0.00104845594615,"(0.01, 0.0, 0.0, 0.0, 0.01, 0.0, 0.0, 0.0, 0.01)",0.141611431818,-3.30682615399,-9.22467383265,"(0.01, 0.0, 0.0, 0.0, 0.01, 0.0, 0.0, 0.0, 0.01)"
2019/09/05/07:27:27.467156,7108,1567636047,466781065,gx5_link,-0.134600326419,0.106829881668,0.778198063374,0.604051232338,"(0.01, 0.0, 0.0, 0.0, 0.01, 0.0, 0.0, 0.0, 0.01)",0.00103483372368,-0.00431412132457,0.00126908300444,"(0.01, 0.0, 0.0, 0.0, 0.01, 0.0, 0.0, 0.0, 0.01)",0.142037127391,-3.3080599165,-9.22580819249,"(0.01, 0.0, 0.0, 0.0, 0.01, 0.0, 0.0, 0.0, 0.01)"
2019/09/05/07:27:27.479081,7109,1567636047,478766515,gx5_link,-0.134600460529,0.106825612485,0.778201758862,0.604047179222,"(0.01, 0.0, 0.0, 0.0, 0.01, 0.0, 0.0, 0.0, 0.01)",0.000416690862039,-0.00426438590512,0.000815647945274,"(0.01, 0.0, 0.0, 0.0, 0.01, 0.0, 0.0, 0.0, 0.01)",0.14233003635,-3.30672090411,-9.22516324461,"(0.01, 0.0, 0.0, 0.0, 0.01, 0.0, 0.0, 0.0, 0.01)"
2019/09/05/07:27:27.497139,7110,1567636047,496846511,gx5_link,-0.134598508477,0.10682246834,0.778203904629,0.604045391083,"(0.01, 0.0, 0.0, 0.0, 0.01, 0.0, 0.0, 0.0, 0.01)",6.60771329422e-05,-0.00389585620724,0.00056704855524,"(0.01, 0.0, 0.0, 0.0, 0.01, 0.0, 0.0, 0.0, 0.01)",0.143538747188,-3.30755208582,-9.22513693213,"(0.01, 0.0, 0.0, 0.0, 0.01, 0.0, 0.0, 0.0, 0.01)"
2019/09/05/07:27:27.521110,7111,1567636047,520782565,gx5_link,-0.134591594338,0.106815956533,0.778205513954,0.604046046734,"(0.01, 0.0, 0.0, 0.0, 0.01, 0.0, 0.0, 0.0, 0.01)",-0.000871462747455,-0.00368660711683,0.000305682915496,"(0.01, 0.0, 0.0, 0.0, 0.01, 0.0, 0.0, 0.0, 0.01)",0.139720122507,-3.30618179083,-9.22427271366,"(0.01, 0.0, 0.0, 0.0, 0.01, 0.0, 0.0, 0.0, 0.01)"
2019/09/05/07:27:27.527005,7112,1567636047,526714352,gx5_link,-0.134591534734,0.106818720698,0.778203189373,0.604048609734,"(0.01, 0.0, 0.0, 0.0, 0.01, 0.0, 0.0, 0.0, 0.01)",-0.00051469146274,-0.003152100835,-1.41357304528e-06,"(0.01, 0.0, 0.0, 0.0, 0.01, 0.0, 0.0, 0.0, 0.01)",0.140838694861,-3.30834993839,-9.22127835453,"(0.01, 0.0, 0.0, 0.0, 0.01, 0.0, 0.0, 0.0, 0.01)"
2019/09/05/07:27:27.538998,7113,1567636047,538712164,gx5_link,-0.134590253234,0.106818810105,0.77820032835,0.60405254364,"(0.01, 0.0, 0.0, 0.0, 0.01, 0.0, 0.0, 0.0, 0.01)",-0.000435366207967,-0.00364366406575,0.000684002938215,"(0.01, 0.0, 0.0, 0.0, 0.01, 0.0, 0.0, 0.0, 0.01)",0.14192353609,-3.30615635544,-9.22329155087,"(0.01, 0.0, 0.0, 0.0, 0.01, 0.0, 0.0, 0.0, 0.01)"
2019/09/05/07:27:27.557001,7114,1567636047,556710606,gx5_link,-0.134593099356,0.10681501776,0.778195798397,0.604058325291,"(0.01, 0.0, 0.0, 0.0, 0.01, 0.0, 0.0, 0.0, 0.01)",0.000309954339173,-0.00422788085416,0.00177968572825,"(0.01, 0.0, 0.0, 0.0, 0.01, 0.0, 0.0, 0.0, 0.01)",0.141376446839,-3.30756261081,-9.22511120439,"(0.01, 0.0, 0.0, 0.0, 0.01, 0.0, 0.0, 0.0, 0.01)"
2019/09/05/07:27:27.569048,7115,1567636047,568704292,gx5_link,-0.134591177106,0.106819272041,0.778188943863,0.60406690836,"(0.01, 0.0, 0.0, 0.0, 0.01, 0.0, 0.0, 0.0, 0.01)",-0.000502513255924,-0.00268572662026,0.00258102756925,"(0.01, 0.0, 0.0, 0.0, 0.01, 0.0, 0.0, 0.0, 0.01)",0.140002515614,-3.30657150775,-9.22641688764,"(0.01, 0.0, 0.0, 0.0, 0.01, 0.0, 0.0, 0.0, 0.01)"
2019/09/05/07:27:27.587061,7116,1567636047,586711033,gx5_link,-0.134584277868,0.106824673712,0.778185665607,0.604071676731,"(0.01, 0.0, 0.0, 0.0, 0.01, 0.0, 0.0, 0.0, 0.01)",0.000179643320735,-0.00185538025107,0.00203878525645,"(0.01, 0.0, 0.0, 0.0, 0.01, 0.0, 0.0, 0.0, 0.01)",0.141680739596,-3.30778860569,-9.22211976886,"(0.01, 0.0, 0.0, 0.0, 0.01, 0.0, 0.0, 0.0, 0.01)"
2019/09/05/07:27:27.599129,7117,1567636047,598729743,gx5_link,-0.134586915374,0.106820315123,0.778183162212,0.604075133801,"(0.01, 0.0, 0.0, 0.0, 0.01, 0.0, 0.0, 0.0, 0.01)",0.000542309484445,-0.00385153666139,0.00139808212407,"(0.01, 0.0, 0.0, 0.0, 0.01, 0.0, 0.0, 0.0, 0.01)",0.143875044314,-3.30688608795,-9.22305707753,"(0.01, 0.0, 0.0, 0.0, 0.01, 0.0, 0.0, 0.0, 0.01)"
2019/09/05/07:27:27.616960,7118,1567636047,616661879,gx5_link,-0.134585902095,0.106817290187,0.77818351984,0.604075431824,"(0.01, 0.0, 0.0, 0.0, 0.01, 0.0, 0.0, 0.0, 0.01)",0.000166135811014,-0.00439550820738,0.0012187466491,"(0.01, 0.0, 0.0, 0.0, 0.01, 0.0, 0.0, 0.0, 0.01)",0.143258738648,-3.3063735795,-9.22536438882,"(0.01, 0.0, 0.0, 0.0, 0.01, 0.0, 0.0, 0.0, 0.01)"
2019/09/05/07:27:27.635162,7119,1567636047,634814405,gx5_link,-0.134586542845,0.106814280152,0.778185367584,0.60407346487,"(0.01, 0.0, 0.0, 0.0, 0.01, 0.0, 0.0, 0.0, 0.01)",0.000778025947511,-0.00452517019585,0.00103969324846,"(0.01, 0.0, 0.0, 0.0, 0.01, 0.0, 0.0, 0.0, 0.01)",0.142240692722,-3.30613267422,-9.22524919868,"(0.01, 0.0, 0.0, 0.0, 0.01, 0.0, 0.0, 0.0, 0.01)"
2019/09/05/07:27:27.647600,7120,1567636047,647257720,gx5_link,-0.134586453438,0.106810882688,0.778183102608,0.604076981544,"(0.01, 0.0, 0.0, 0.0, 0.01, 0.0, 0.0, 0.0, 0.01)",0.000463121628854,-0.00428277393803,0.00177047995385,"(0.01, 0.0, 0.0, 0.0, 0.01, 0.0, 0.0, 0.0, 0.01)",0.140815333407,-3.30703051418,-9.22335820913,"(0.01, 0.0, 0.0, 0.0, 0.01, 0.0, 0.0, 0.0, 0.01)"
2019/09/05/07:27:27.671108,7121,1567636047,670764694,gx5_link,-0.13458763063,0.106806002557,0.778185665607,0.604074239731,"(0.01, 0.0, 0.0, 0.0, 0.01, 0.0, 0.0, 0.0, 0.01)",0.000128342304379,-0.00403888244182,0.00130278617144,"(0.01, 0.0, 0.0, 0.0, 0.01, 0.0, 0.0, 0.0, 0.01)",0.143390374091,-3.3075813219,-9.22037086666,"(0.01, 0.0, 0.0, 0.0, 0.01, 0.0, 0.0, 0.0, 0.01)"
2019/09/05/07:27:27.676981,7122,1567636047,676691919,gx5_link,-0.13458442688,0.106810621917,0.778183400631,0.604077100754,"(0.01, 0.0, 0.0, 0.0, 0.01, 0.0, 0.0, 0.0, 0.01)",0.000349151407136,-0.0027429042384,0.00108613958582,"(0.01, 0.0, 0.0, 0.0, 0.01, 0.0, 0.0, 0.0, 0.01)",0.143508122396,-3.30742958665,-9.22167187214,"(0.01, 0.0, 0.0, 0.0, 0.01, 0.0, 0.0, 0.0, 0.01)"
2019/09/05/07:27:27.689010,7123,1567636047,688698530,gx5_link,-0.13458365202,0.106812641025,0.778179824352,0.604081571102,"(0.01, 0.0, 0.0, 0.0, 0.01, 0.0, 0.0, 0.0, 0.01)",-0.000311550364131,-0.00333491782658,0.000973014277406,"(0.01, 0.0, 0.0, 0.0, 0.01, 0.0, 0.0, 0.0, 0.01)",0.143810258992,-3.30952259749,-9.22600115061,"(0.01, 0.0, 0.0, 0.0, 0.01, 0.0, 0.0, 0.0, 0.01)"
2019/09/05/07:27:27.707087,7124,1567636047,706772626,gx5_link,-0.134581983089,0.10681117326,0.778182327747,0.604078888893,"(0.01, 0.0, 0.0, 0.0, 0.01, 0.0, 0.0, 0.0, 0.01)",0.000136901042424,-0.00347220594995,0.000837453699205,"(0.01, 0.0, 0.0, 0.0, 0.01, 0.0, 0.0, 0.0, 0.01)",0.143141520247,-3.3075447768,-9.22549068868,"(0.01, 0.0, 0.0, 0.0, 0.01, 0.0, 0.0, 0.0, 0.01)"
2019/09/05/07:27:27.724981,7125,1567636047,724685665,gx5_link,-0.13458712399,0.106814317405,0.778177678585,0.604083299637,"(0.01, 0.0, 0.0, 0.0, 0.01, 0.0, 0.0, 0.0, 0.01)",0.00183183827903,-0.00364313786849,0.00210818764754,"(0.01, 0.0, 0.0, 0.0, 0.01, 0.0, 0.0, 0.0, 0.01)",0.142671468062,-3.30717903346,-9.22639993072,"(0.01, 0.0, 0.0, 0.0, 0.01, 0.0, 0.0, 0.0, 0.01)"
2019/09/05/07:27:27.736991,7126,1567636047,736682076,gx5_link,-0.134578660131,0.106812909245,0.778175473213,0.604088187218,"(0.01, 0.0, 0.0, 0.0, 0.01, 0.0, 0.0, 0.0, 0.01)",-0.00131003838032,-0.00293503748253,0.00191905989777,"(0.01, 0.0, 0.0, 0.0, 0.01, 0.0, 0.0, 0.0, 0.01)",0.142934839446,-3.30552661031,-9.22759393215,"(0.01, 0.0, 0.0, 0.0, 0.01, 0.0, 0.0, 0.0, 0.01)"
2019/09/05/07:27:27.754992,7127,1567636047,754691292,gx5_link,-0.134579777718,0.106811895967,0.778172433376,0.60409206152,"(0.01, 0.0, 0.0, 0.0, 0.01, 0.0, 0.0, 0.0, 0.01)",-0.00048209464876,-0.00381520716473,0.00201154476963,"(0.01, 0.0, 0.0, 0.0, 0.01, 0.0, 0.0, 0.0, 0.01)",0.143477789965,-3.30909925908,-9.22762726128,"(0.01, 0.0, 0.0, 0.0, 0.01, 0.0, 0.0, 0.0, 0.01)"
2019/09/05/07:27:27.767109,7128,1567636047,766789481,gx5_link,-0.134575620294,0.106815293431,0.778168737888,0.60409706831,"(0.01, 0.0, 0.0, 0.0, 0.01, 0.0, 0.0, 0.0, 0.01)",-0.000230041478062,-0.00262529379688,0.00120872736443,"(0.01, 0.0, 0.0, 0.0, 0.01, 0.0, 0.0, 0.0, 0.01)",0.14356780054,-3.30519887388,-9.22305181503,"(0.01, 0.0, 0.0, 0.0, 0.01, 0.0, 0.0, 0.0, 0.01)"
2019/09/05/07:27:27.785014,7129,1567636047,784704681,gx5_link,-0.13457429409,0.106814898551,0.778168261051,0.604098021984,"(0.01, 0.0, 0.0, 0.0, 0.01, 0.0, 0.0, 0.0, 0.01)",0.000508509110659,-0.002765806159,0.000492847058922,"(0.01, 0.0, 0.0, 0.0, 0.01, 0.0, 0.0, 0.0, 0.01)",0.142153779343,-3.30564706296,-9.22594852567,"(0.01, 0.0, 0.0, 0.0, 0.01, 0.0, 0.0, 0.0, 0.01)"
2019/09/05/07:27:27.797113,7130,1567636047,796812393,gx5_link,-0.134570106864,0.106816232204,0.778163015842,0.604105472565,"(0.01, 0.0, 0.0, 0.0, 0.01, 0.0, 0.0, 0.0, 0.01)",0.000282976194285,-0.00266066635959,0.000639068544842,"(0.01, 0.0, 0.0, 0.0, 0.01, 0.0, 0.0, 0.0, 0.01)",0.141613076348,-3.30789970279,-9.22720450759,"(0.01, 0.0, 0.0, 0.0, 0.01, 0.0, 0.0, 0.0, 0.01)"
2019/09/05/07:27:27.820992,7131,1567636047,820669106,gx5_link,-0.134565547109,0.106816232204,0.778164446354,0.604104697704,"(0.01, 0.0, 0.0, 0.0, 0.01, 0.0, 0.0, 0.0, 0.01)",-5.32722915523e-05,-0.00280090630986,0.000507642165758,"(0.01, 0.0, 0.0, 0.0, 0.01, 0.0, 0.0, 0.0, 0.01)",0.14216261412,-3.30597304523,-9.22408326387,"(0.01, 0.0, 0.0, 0.0, 0.01, 0.0, 0.0, 0.0, 0.01)"
2019/09/05/07:27:27.827125,7132,1567636047,826789536,gx5_link,-0.134566992521,0.106816351414,0.778162837029,0.604106426239,"(0.01, 0.0, 0.0, 0.0, 0.01, 0.0, 0.0, 0.0, 0.01)",0.000476474990137,-0.00342468847521,0.000579473213293,"(0.01, 0.0, 0.0, 0.0, 0.01, 0.0, 0.0, 0.0, 0.01)",0.145073294118,-3.30707846135,-9.22532696664,"(0.01, 0.0, 0.0, 0.0, 0.01, 0.0, 0.0, 0.0, 0.01)"
2019/09/05/07:27:27.839012,7133,1567636047,838687733,gx5_link,-0.134566277266,0.106818251312,0.778154790401,0.604116559029,"(0.01, 0.0, 0.0, 0.0, 0.01, 0.0, 0.0, 0.0, 0.01)",0.000112701723992,-0.00335157103837,0.00119824148715,"(0.01, 0.0, 0.0, 0.0, 0.01, 0.0, 0.0, 0.0, 0.01)",0.144156944063,-3.30568390042,-9.22435749829,"(0.01, 0.0, 0.0, 0.0, 0.01, 0.0, 0.0, 0.0, 0.01)"
2019/09/05/07:27:27.856925,7134,1567636047,856627331,gx5_link,-0.134568542242,0.106816641986,0.778150677681,0.604121744633,"(0.01, 0.0, 0.0, 0.0, 0.01, 0.0, 0.0, 0.0, 0.01)",0.00113163737115,-0.00370202725753,0.00226232223213,"(0.01, 0.0, 0.0, 0.0, 0.01, 0.0, 0.0, 0.0, 0.01)",0.144256840087,-3.30458023846,-9.22375991285,"(0.01, 0.0, 0.0, 0.0, 0.01, 0.0, 0.0, 0.0, 0.01)"
2019/09/05/07:27:27.868959,7135,1567636047,868649315,gx5_link,-0.134573891759,0.106815628707,0.778147220612,0.604125142097,"(0.01, 0.0, 0.0, 0.0, 0.01, 0.0, 0.0, 0.0, 0.01)",0.000787111639511,-0.00400864519179,0.0013388057705,"(0.01, 0.0, 0.0, 0.0, 0.01, 0.0, 0.0, 0.0, 0.01)",0.143922077855,-3.30689953655,-9.22432650805,"(0.01, 0.0, 0.0, 0.0, 0.01, 0.0, 0.0, 0.0, 0.01)"
2019/09/05/07:27:27.887153,7136,1567636047,886739735,gx5_link,-0.134578734636,0.106817558408,0.778145968914,0.604125380516,"(0.01, 0.0, 0.0, 0.0, 0.01, 0.0, 0.0, 0.0, 0.01)",0.0012901017908,-0.00374362221919,0.00140629417729,"(0.01, 0.0, 0.0, 0.0, 0.01, 0.0, 0.0, 0.0, 0.01)",0.146032676026,-3.3039671579,-9.2254070735,"(0.01, 0.0, 0.0, 0.0, 0.01, 0.0, 0.0, 0.0, 0.01)"
2019/09/05/07:27:27.899117,7137,1567636047,898764343,gx5_link,-0.134574010968,0.106819875538,0.778145670891,0.604126393795,"(0.01, 0.0, 0.0, 0.0, 0.01, 0.0, 0.0, 0.0, 0.01)",-0.000233341605053,-0.00273908139206,0.00156599457841,"(0.01, 0.0, 0.0, 0.0, 0.01, 0.0, 0.0, 0.0, 0.01)",0.143383457931,-3.30616921932,-9.22599354923,"(0.01, 0.0, 0.0, 0.0, 0.01, 0.0, 0.0, 0.0, 0.01)"
2019/09/05/07:27:27.916912,7138,1567636047,916610189,gx5_link,-0.134569689631,0.106816858053,0.778143525124,0.604130625725,"(0.01, 0.0, 0.0, 0.0, 0.01, 0.0, 0.0, 0.0, 0.01)",-0.000577871571295,-0.00252379756421,0.00218100193888,"(0.01, 0.0, 0.0, 0.0, 0.01, 0.0, 0.0, 0.0, 0.01)",0.142041777754,-3.30754594624,-9.22617539763,"(0.01, 0.0, 0.0, 0.0, 0.01, 0.0, 0.0, 0.0, 0.01)"
2019/09/05/07:27:27.929016,7139,1567636047,928648158,gx5_link,-0.134563937783,0.106818877161,0.778146088123,0.604128241539,"(0.01, 0.0, 0.0, 0.0, 0.01, 0.0, 0.0, 0.0, 0.01)",-0.000194027248654,-0.00188862544019,0.00139270734508,"(0.01, 0.0, 0.0, 0.0, 0.01, 0.0, 0.0, 0.0, 0.01)",0.141932562729,-3.30892705858,-9.22265186548,"(0.01, 0.0, 0.0, 0.0, 0.01, 0.0, 0.0, 0.0, 0.01)"
2019/09/05/07:27:27.947011,7140,1567636047,946667861,gx5_link,-0.134564042091,0.106818825006,0.778142809868,0.604132473469,"(0.01, 0.0, 0.0, 0.0, 0.01, 0.0, 0.0, 0.0, 0.01)",0.000911270035431,-0.00316790258512,0.00167773920111,"(0.01, 0.0, 0.0, 0.0, 0.01, 0.0, 0.0, 0.0, 0.01)",0.141641937839,-3.30566109627,-9.2214619571,"(0.01, 0.0, 0.0, 0.0, 0.01, 0.0, 0.0, 0.0, 0.01)"
2019/09/05/07:27:27.964835,7141,1567636047,964533304,gx5_link,-0.134566783905,0.106814943254,0.778140485287,0.60413557291,"(0.01, 0.0, 0.0, 0.0, 0.01, 0.0, 0.0, 0.0, 0.01)",0.00117475248408,-0.00439630402252,0.00220545707271,"(0.01, 0.0, 0.0, 0.0, 0.01, 0.0, 0.0, 0.0, 0.01)",0.142329296311,-3.30666652501,-9.2240920347,"(0.01, 0.0, 0.0, 0.0, 0.01, 0.0, 0.0, 0.0, 0.01)"
2019/09/05/07:27:27.977101,7142,1567636047,976780527,gx5_link,-0.134566441178,0.106813199818,0.778137803078,0.604139387608,"(0.01, 0.0, 0.0, 0.0, 0.01, 0.0, 0.0, 0.0, 0.01)",0.000677522155456,-0.00339118181728,0.00139770354144,"(0.01, 0.0, 0.0, 0.0, 0.01, 0.0, 0.0, 0.0, 0.01)",0.141030620579,-3.30647444397,-9.22625024199,"(0.01, 0.0, 0.0, 0.0, 0.01, 0.0, 0.0, 0.0, 0.01)"
2019/09/05/07:27:27.989061,7143,1567636047,988733805,gx5_link,-0.134564176202,0.106813594699,0.778132975101,0.604146063328,"(0.01, 0.0, 0.0, 0.0, 0.01, 0.0, 0.0, 0.0, 0.01)",9.79740871117e-05,-0.00332876457833,0.000966663938016,"(0.01, 0.0, 0.0, 0.0, 0.01, 0.0, 0.0, 0.0, 0.01)",0.143622453734,-3.30704542458,-9.22583041191,"(0.01, 0.0, 0.0, 0.0, 0.01, 0.0, 0.0, 0.0, 0.01)"
2019/09/05/07:27:28.006963,7144,1567636048,6656491,gx5_link,-0.134563788772,0.106812365353,0.778131008148,0.604148924351,"(0.01, 0.0, 0.0, 0.0, 0.01, 0.0, 0.0, 0.0, 0.01)",0.000751946878154,-0.00390103599057,0.000360807171091,"(0.01, 0.0, 0.0, 0.0, 0.01, 0.0, 0.0, 0.0, 0.01)",0.139452877343,-3.30632797122,-9.22549302757,"(0.01, 0.0, 0.0, 0.0, 0.01, 0.0, 0.0, 0.0, 0.01)"
2019/09/05/07:27:28.019077,7145,1567636048,18736697,gx5_link,-0.134564876556,0.106812573969,0.778131008148,0.604148566723,"(0.01, 0.0, 0.0, 0.0, 0.01, 0.0, 0.0, 0.0, 0.01)",0.000571269309148,-0.00364196533337,0.00072261900641,"(0.01, 0.0, 0.0, 0.0, 0.01, 0.0, 0.0, 0.0, 0.01)",0.142575948313,-3.30549386591,-9.22766819179,"(0.01, 0.0, 0.0, 0.0, 0.01, 0.0, 0.0, 0.0, 0.01)"
2019/09/05/07:27:28.036981,7146,1567636048,36760029,gx5_link,-0.134562328458,0.106812909245,0.778132140636,0.604147613049,"(0.01, 0.0, 0.0, 0.0, 0.01, 0.0, 0.0, 0.0, 0.01)",-7.79989131843e-05,-0.00309655279852,0.000616413948592,"(0.01, 0.0, 0.0, 0.0, 0.01, 0.0, 0.0, 0.0, 0.01)",0.141066946406,-3.30739625752,-9.22704780221,"(0.01, 0.0, 0.0, 0.0, 0.01, 0.0, 0.0, 0.0, 0.01)"
2019/09/05/07:27:28.055108,7147,1567636048,54729490,gx5_link,-0.134561225772,0.106813952327,0.7781265378,0.60415494442,"(0.01, 0.0, 0.0, 0.0, 0.01, 0.0, 0.0, 0.0, 0.01)",1.05340786831e-05,-0.00344541668892,0.00158961000852,"(0.01, 0.0, 0.0, 0.0, 0.01, 0.0, 0.0, 0.0, 0.01)",0.143254773505,-3.3046612224,-9.22778338194,"(0.01, 0.0, 0.0, 0.0, 0.01, 0.0, 0.0, 0.0, 0.01)"
2019/09/05/07:27:28.067091,7148,1567636048,66757289,gx5_link,-0.13455991447,0.106812432408,0.778120875359,0.604162752628,"(0.01, 0.0, 0.0, 0.0, 0.01, 0.0, 0.0, 0.0, 0.01)",0.000287192407995,-0.00289046973921,0.00202709808946,"(0.01, 0.0, 0.0, 0.0, 0.01, 0.0, 0.0, 0.0, 0.01)",0.143972775042,-3.30861774087,-9.22826811612,"(0.01, 0.0, 0.0, 0.0, 0.01, 0.0, 0.0, 0.0, 0.01)"
2019/09/05/07:27:28.084982,7149,1567636048,84666045,gx5_link,-0.134577214718,0.106807291508,0.778131067753,0.604146659374,"(0.01, 0.0, 0.0, 0.0, 0.01, 0.0, 0.0, 0.0, 0.01)",-0.000318462145515,0.00106598390266,0.00373637676239,"(0.01, 0.0, 0.0, 0.0, 0.01, 0.0, 0.0, 0.0, 0.01)",0.0135297535267,-3.30067634493,-8.97723837733,"(0.01, 0.0, 0.0, 0.0, 0.01, 0.0, 0.0, 0.0, 0.01)"
2019/09/05/07:27:28.096970,7150,1567636048,96627675,gx5_link,-0.133493229747,0.107580840588,0.778547883034,0.60371273756,"(0.01, 0.0, 0.0, 0.0, 0.01, 0.0, 0.0, 0.0, 0.01)",-0.0866007506847,0.32700574398,-0.0946654602885,"(0.01, 0.0, 0.0, 0.0, 0.01, 0.0, 0.0, 0.0, 0.01)",-1.30340108693,-3.22684296817,-9.13061552167,"(0.01, 0.0, 0.0, 0.0, 0.01, 0.0, 0.0, 0.0, 0.01)"
2019/09/05/07:27:28.120961,7151,1567636048,120599719,gx5_link,-0.128708735108,0.111268088222,0.779258191586,0.603166759014,"(0.01, 0.0, 0.0, 0.0, 0.01, 0.0, 0.0, 0.0, 0.01)",-0.319639325142,1.07296133041,-0.295911163092,"(0.01, 0.0, 0.0, 0.0, 0.01, 0.0, 0.0, 0.0, 0.01)",-0.89009722665,-4.24716982037,-8.7586302799,"(0.01, 0.0, 0.0, 0.0, 0.01, 0.0, 0.0, 0.0, 0.01)"
2019/09/05/07:27:28.133027,7152,1567636048,132686962,gx5_link,-0.120140045881,0.11727079004,0.779980838299,0.602863013744,"(0.01, 0.0, 0.0, 0.0, 0.01, 0.0, 0.0, 0.0, 0.01)",-0.564067423344,1.8191549778,-0.424414813519,"(0.01, 0.0, 0.0, 0.0, 0.01, 0.0, 0.0, 0.0, 0.01)",-0.316852759011,-2.93255903631,-8.70348401964,"(0.01, 0.0, 0.0, 0.0, 0.01, 0.0, 0.0, 0.0, 0.01)"
2019/09/05/07:27:28.144957,7153,1567636048,144633182,gx5_link,-0.1118927598,0.123201802373,0.779835879803,0.603454530239,"(0.01, 0.0, 0.0, 0.0, 0.01, 0.0, 0.0, 0.0, 0.01)",-0.550861418247,1.71666288376,-0.298988103867,"(0.01, 0.0, 0.0, 0.0, 0.01, 0.0, 0.0, 0.0, 0.01)",2.00839403093,-2.92452554673,-8.20817222893,"(0.01, 0.0, 0.0, 0.0, 0.01, 0.0, 0.0, 0.0, 0.01)"
2019/09/05/07:27:28.162966,7154,1567636048,162640015,gx5_link,-0.108915187418,0.124890826643,0.77917444706,0.60450553894,"(0.01, 0.0, 0.0, 0.0, 0.01, 0.0, 0.0, 0.0, 0.01)",-0.269177079201,0.614076435566,-0.00424201786518,"(0.01, 0.0, 0.0, 0.0, 0.01, 0.0, 0.0, 0.0, 0.01)",3.20154294312,-2.66654785395,-9.71447345316,"(0.01, 0.0, 0.0, 0.0, 0.01, 0.0, 0.0, 0.0, 0.01)"
2019/09/05/07:27:28.174938,7155,1567636048,174631542,gx5_link,-0.110943354666,0.122856356204,0.778542160988,0.605367660522,"(0.01, 0.0, 0.0, 0.0, 0.01, 0.0, 0.0, 0.0, 0.01)",0.0122863668948,-0.352365016937,0.220480084419,"(0.01, 0.0, 0.0, 0.0, 0.01, 0.0, 0.0, 0.0, 0.01)",2.17081477135,-3.23965626419,-9.63601492882,"(0.01, 0.0, 0.0, 0.0, 0.01, 0.0, 0.0, 0.0, 0.01)"
2019/09/05/07:27:28.193709,7156,1567636048,193326169,gx5_link,-0.112576030195,0.121117331088,0.778433978558,0.605555772781,"(0.01, 0.0, 0.0, 0.0, 0.01, 0.0, 0.0, 0.0, 0.01)",0.0206693075597,-0.288671135902,0.183228731155,"(0.01, 0.0, 0.0, 0.0, 0.01, 0.0, 0.0, 0.0, 0.01)",-0.435729759559,-2.64392673075,-9.42256349087,"(0.01, 0.0, 0.0, 0.0, 0.01, 0.0, 0.0, 0.0, 0.01)"
2019/09/05/07:27:28.204998,7157,1567636048,204661050,gx5_link,-0.111350208521,0.121901452541,0.778387486935,0.605684816837,"(0.01, 0.0, 0.0, 0.0, 0.01, 0.0, 0.0, 0.0, 0.01)",-0.087887942791,0.204411521554,0.0361549369991,"(0.01, 0.0, 0.0, 0.0, 0.01, 0.0, 0.0, 0.0, 0.01)",0.140221365932,-2.9792774123,-9.04145133018,"(0.01, 0.0, 0.0, 0.0, 0.01, 0.0, 0.0, 0.0, 0.01)"
2019/09/05/07:27:28.223135,7158,1567636048,222681507,gx5_link,-0.109509497881,0.123238556087,0.778107225895,0.606109797955,"(0.01, 0.0, 0.0, 0.0, 0.01, 0.0, 0.0, 0.0, 0.01)",-0.0964105799794,0.337285339832,0.0298131462187,"(0.01, 0.0, 0.0, 0.0, 0.01, 0.0, 0.0, 0.0, 0.01)",1.38466744423,-2.90121240556,-9.40460961521,"(0.01, 0.0, 0.0, 0.0, 0.01, 0.0, 0.0, 0.0, 0.01)"
2019/09/05/07:27:28.235046,7159,1567636048,234684021,gx5_link,-0.10987047106,0.123049110174,0.77750569582,0.606854438782,"(0.01, 0.0, 0.0, 0.0, 0.01, 0.0, 0.0, 0.0, 0.01)",0.0330971553922,-0.0763204470277,0.155297487974,"(0.01, 0.0, 0.0, 0.0, 0.01, 0.0, 0.0, 0.0, 0.01)",1.90279463187,-2.98962610692,-9.75568579853,"(0.01, 0.0, 0.0, 0.0, 0.01, 0.0, 0.0, 0.0, 0.01)"
2019/09/05/07:27:28.252957,7160,1567636048,252645171,gx5_link,-0.112998217344,0.121012568474,0.776856482029,0.607520699501,"(0.01, 0.0, 0.0, 0.0, 0.01, 0.0, 0.0, 0.0, 0.01)",0.208016365767,-0.599725306034,0.258231192827,"(0.01, 0.0, 0.0, 0.0, 0.01, 0.0, 0.0, 0.0, 0.01)",1.35912461355,-3.05464422137,-9.12475544214,"(0.01, 0.0, 0.0, 0.0, 0.01, 0.0, 0.0, 0.0, 0.01)"
2019/09/05/07:27:28.271668,7161,1567636048,271287402,gx5_link,-0.116111151874,0.118975788355,0.776420295238,0.607893466949,"(0.01, 0.0, 0.0, 0.0, 0.01, 0.0, 0.0, 0.0, 0.01)",0.227560088038,-0.629415690899,0.22439737618,"(0.01, 0.0, 0.0, 0.0, 0.01, 0.0, 0.0, 0.0, 0.01)",0.732988681644,-2.81304691851,-9.1608052808,"(0.01, 0.0, 0.0, 0.0, 0.01, 0.0, 0.0, 0.0, 0.01)"
2019/09/05/07:27:28.276922,7162,1567636048,276627701,gx5_link,-0.117849238217,0.118023358285,0.776240050793,0.607974767685,"(0.01, 0.0, 0.0, 0.0, 0.01, 0.0, 0.0, 0.0, 0.01)",0.16728053987,-0.373241961002,0.128585413098,"(0.01, 0.0, 0.0, 0.0, 0.01, 0.0, 0.0, 0.0, 0.01)",0.664843549356,-2.99139693618,-9.0644010669,"(0.01, 0.0, 0.0, 0.0, 0.01, 0.0, 0.0, 0.0, 0.01)"
2019/09/05/07:27:28.295116,7163,1567636048,294640371,gx5_link,-0.118911363184,0.117618523538,0.776094913483,0.60803180933,"(0.01, 0.0, 0.0, 0.0, 0.01, 0.0, 0.0, 0.0, 0.01)",0.131065040827,-0.231562629342,0.0875208228827,"(0.01, 0.0, 0.0, 0.0, 0.01, 0.0, 0.0, 0.0, 0.01)",0.424646325745,-3.10269371599,-9.4007212168,"(0.01, 0.0, 0.0, 0.0, 0.01, 0.0, 0.0, 0.0, 0.01)"
2019/09/05/07:27:28.306945,7164,1567636048,306648222,gx5_link,-0.120689384639,0.116578534245,0.775768876076,0.608297765255,"(0.01, 0.0, 0.0, 0.0, 0.01, 0.0, 0.0, 0.0, 0.01)",0.166224330664,-0.402826964855,0.132565647364,"(0.01, 0.0, 0.0, 0.0, 0.01, 0.0, 0.0, 0.0, 0.01)",0.793317329139,-3.01630256653,-9.39876766205,"(0.01, 0.0, 0.0, 0.0, 0.01, 0.0, 0.0, 0.0, 0.01)"
2019/09/05/07:27:28.324965,7165,1567636048,324635020,gx5_link,-0.123843051493,0.114523500204,0.77544271946,0.608470201492,"(0.01, 0.0, 0.0, 0.0, 0.01, 0.0, 0.0, 0.0, 0.01)",0.231339350343,-0.663838148117,0.159742578864,"(0.01, 0.0, 0.0, 0.0, 0.01, 0.0, 0.0, 0.0, 0.01)",1.00710286237,-3.16642573535,-9.33277774036,"(0.01, 0.0, 0.0, 0.0, 0.01, 0.0, 0.0, 0.0, 0.01)"
2019/09/05/07:27:28.336930,7166,1567636048,336604125,gx5_link,-0.126881316304,0.112466052175,0.775456666946,0.608210027218,"(0.01, 0.0, 0.0, 0.0, 0.01, 0.0, 0.0, 0.0, 0.01)",0.21825799346,-0.658871114254,0.0974207371473,"(0.01, 0.0, 0.0, 0.0, 0.01, 0.0, 0.0, 0.0, 0.01)",0.516587688848,-3.26792170465,-9.07362914264,"(0.01, 0.0, 0.0, 0.0, 0.01, 0.0, 0.0, 0.0, 0.01)"
2019/09/05/07:27:28.355030,7167,1567636048,354669839,gx5_link,-0.128910452127,0.111032411456,0.775758743286,0.607661247253,"(0.01, 0.0, 0.0, 0.0, 0.01, 0.0, 0.0, 0.0, 0.01)",0.154285207391,-0.481383025646,0.00548923108727,"(0.01, 0.0, 0.0, 0.0, 0.01, 0.0, 0.0, 0.0, 0.01)",-0.130777025437,-3.12805309027,-9.08355537593,"(0.01, 0.0, 0.0, 0.0, 0.01, 0.0, 0.0, 0.0, 0.01)"
2019/09/05/07:27:28.372905,7168,1567636048,372608554,gx5_link,-0.130357727408,0.109981045127,0.776041805744,0.607182145119,"(0.01, 0.0, 0.0, 0.0, 0.01, 0.0, 0.0, 0.0, 0.01)",0.110849551857,-0.397138118744,-0.0360262021422,"(0.01, 0.0, 0.0, 0.0, 0.01, 0.0, 0.0, 0.0, 0.01)",0.144410731494,-3.25850213259,-9.32713459253,"(0.01, 0.0, 0.0, 0.0, 0.01, 0.0, 0.0, 0.0, 0.01)"
2019/09/05/07:27:28.384904,7169,1567636048,384591158,gx5_link,-0.131921246648,0.108626849949,0.776289880276,0.606770992279,"(0.01, 0.0, 0.0, 0.0, 0.01, 0.0, 0.0, 0.0, 0.01)",0.0854687765241,-0.441206544638,-0.0371858626604,"(0.01, 0.0, 0.0, 0.0, 0.01, 0.0, 0.0, 0.0, 0.01)",0.447255169787,-3.3259322235,-9.38349415004,"(0.01, 0.0, 0.0, 0.0, 0.01, 0.0, 0.0, 0.0, 0.01)"
2019/09/05/07:27:28.402991,7170,1567636048,402651660,gx5_link,-0.133425757289,0.107001155615,0.776640415192,0.606282055378,"(0.01, 0.0, 0.0, 0.0, 0.01, 0.0, 0.0, 0.0, 0.01)",0.0386034101248,-0.449033170938,-0.0462086237967,"(0.01, 0.0, 0.0, 0.0, 0.01, 0.0, 0.0, 0.0, 0.01)",0.257854407895,-3.40337859482,-9.18725457609,"(0.01, 0.0, 0.0, 0.0, 0.01, 0.0, 0.0, 0.0, 0.01)"
2019/09/05/07:27:28.420999,7171,1567636048,420630921,gx5_link,-0.134135484695,0.105731621385,0.777139544487,0.605708360672,"(0.01, 0.0, 0.0, 0.0, 0.01, 0.0, 0.0, 0.0, 0.01)",-0.0335658192635,-0.308564484119,-0.0814300328493,"(0.01, 0.0, 0.0, 0.0, 0.01, 0.0, 0.0, 0.0, 0.01)",0.000360331809497,-3.30486441314,-9.14171470642,"(0.01, 0.0, 0.0, 0.0, 0.01, 0.0, 0.0, 0.0, 0.01)"
2019/09/05/07:27:28.432909,7172,1567636048,432585465,gx5_link,-0.134246125817,0.104922138155,0.777610719204,0.605219781399,"(0.01, 0.0, 0.0, 0.0, 0.01, 0.0, 0.0, 0.0, 0.01)",-0.0756886824965,-0.175009936094,-0.0938103944063,"(0.01, 0.0, 0.0, 0.0, 0.01, 0.0, 0.0, 0.0, 0.01)",-0.192114527766,-3.3347431004,-9.19113654256,"(0.01, 0.0, 0.0, 0.0, 0.01, 0.0, 0.0, 0.0, 0.01)"
2019/09/05/07:27:28.445186,7173,1567636048,444693918,gx5_link,-0.134154230356,0.104382351041,0.777959764004,0.604884803295,"(0.01, 0.0, 0.0, 0.0, 0.01, 0.0, 0.0, 0.0, 0.01)",-0.0744664222002,-0.10946650058,-0.0775659605861,"(0.01, 0.0, 0.0, 0.0, 0.01, 0.0, 0.0, 0.0, 0.01)",-0.0669774752995,-3.27069854736,-9.25210253656,"(0.01, 0.0, 0.0, 0.0, 0.01, 0.0, 0.0, 0.0, 0.01)"
2019/09/05/07:27:28.463076,7174,1567636048,462706676,gx5_link,-0.134250506759,0.103922866285,0.778133749962,0.60471868515,"(0.01, 0.0, 0.0, 0.0, 0.01, 0.0, 0.0, 0.0, 0.01)",-0.0437443889678,-0.0904008299112,-0.0351337604225,"(0.01, 0.0, 0.0, 0.0, 0.01, 0.0, 0.0, 0.0, 0.01)",-0.0406228546612,-3.19008298516,-9.18632896185,"(0.01, 0.0, 0.0, 0.0, 0.01, 0.0, 0.0, 0.0, 0.01)"
2019/09/05/07:27:28.474961,7175,1567636048,474652671,gx5_link,-0.134308427572,0.103727079928,0.778171896935,0.604690372944,"(0.01, 0.0, 0.0, 0.0, 0.01, 0.0, 0.0, 0.0, 0.01)",-0.0174307562411,-0.0415607206523,-0.00242957775481,"(0.01, 0.0, 0.0, 0.0, 0.01, 0.0, 0.0, 0.0, 0.01)",0.018219887428,-3.19316592962,-9.15886809826,"(0.01, 0.0, 0.0, 0.0, 0.01, 0.0, 0.0, 0.0, 0.01)"
2019/09/05/07:27:28.492998,7176,1567636048,492616696,gx5_link,-0.134266749024,0.103792153299,0.778118133545,0.604757666588,"(0.01, 0.0, 0.0, 0.0, 0.01, 0.0, 0.0, 0.0, 0.01)",0.00308362208307,0.00288402894512,0.00942677073181,"(0.01, 0.0, 0.0, 0.0, 0.01, 0.0, 0.0, 0.0, 0.01)",0.0859028704092,-3.12168371826,-9.25819241166,"(0.01, 0.0, 0.0, 0.0, 0.01, 0.0, 0.0, 0.0, 0.01)"
2019/09/05/07:27:28.511026,7177,1567636048,510649777,gx5_link,-0.134397521615,0.103836588562,0.778034508228,0.60482853651,"(0.01, 0.0, 0.0, 0.0, 0.01, 0.0, 0.0, 0.0, 0.01)",0.0257945284247,-0.0149545539171,0.0165731795132,"(0.01, 0.0, 0.0, 0.0, 0.01, 0.0, 0.0, 0.0, 0.01)",0.154267912824,-3.16447919726,-9.262683658,"(0.01, 0.0, 0.0, 0.0, 0.01, 0.0, 0.0, 0.0, 0.01)"
2019/09/05/07:27:28.528922,7178,1567636048,528563045,gx5_link,-0.134590566158,0.103893272579,0.777952432632,0.60488140583,"(0.01, 0.0, 0.0, 0.0, 0.01, 0.0, 0.0, 0.0, 0.01)",0.0360721349716,-0.0140148568898,0.0163499675691,"(0.01, 0.0, 0.0, 0.0, 0.01, 0.0, 0.0, 0.0, 0.01)",0.14338502937,-3.25869509071,-9.23428022325,"(0.01, 0.0, 0.0, 0.0, 0.01, 0.0, 0.0, 0.0, 0.01)"
2019/09/05/07:27:28.541552,7179,1567636048,540623478,gx5_link,-0.134711265564,0.104020640254,0.777889966965,0.604913055897,"(0.01, 0.0, 0.0, 0.0, 0.01, 0.0, 0.0, 0.0, 0.01)",0.0356731489301,0.00122083816677,0.0128062879667,"(0.01, 0.0, 0.0, 0.0, 0.01, 0.0, 0.0, 0.0, 0.01)",0.0938685871102,-3.25609980404,-9.24309431612,"(0.01, 0.0, 0.0, 0.0, 0.01, 0.0, 0.0, 0.0, 0.01)"
2019/09/05/07:27:28.559057,7180,1567636048,558632274,gx5_link,-0.13484813273,0.104102790356,0.777839779854,0.604932904243,"(0.01, 0.0, 0.0, 0.0, 0.01, 0.0, 0.0, 0.0, 0.01)",0.033979807049,-0.00597046362236,0.0107990438119,"(0.01, 0.0, 0.0, 0.0, 0.01, 0.0, 0.0, 0.0, 0.01)",0.0646617906075,-3.24972107649,-9.24795627594,"(0.01, 0.0, 0.0, 0.0, 0.01, 0.0, 0.0, 0.0, 0.01)"
2019/09/05/07:27:28.577410,7181,1567636048,576798942,gx5_link,-0.134995415807,0.104107432067,0.777851700783,0.60488396883,"(0.01, 0.0, 0.0, 0.0, 0.01, 0.0, 0.0, 0.0, 0.01)",0.0250666793436,-0.0131132723764,-0.00084580713883,"(0.01, 0.0, 0.0, 0.0, 0.01, 0.0, 0.0, 0.0, 0.01)",-0.0163627477828,-3.26980012268,-9.25231128216,"(0.01, 0.0, 0.0, 0.0, 0.01, 0.0, 0.0, 0.0, 0.01)"
2019/09/05/07:27:28.589090,7182,1567636048,588524371,gx5_link,-0.135094627738,0.104093134403,0.777897715569,0.604805111885,"(0.01, 0.0, 0.0, 0.0, 0.01, 0.0, 0.0, 0.0, 0.01)",0.015446215868,-0.0157779771835,-0.00975240860134,"(0.01, 0.0, 0.0, 0.0, 0.01, 0.0, 0.0, 0.0, 0.01)",0.000397862911195,-3.29923295975,-9.26681003809,"(0.01, 0.0, 0.0, 0.0, 0.01, 0.0, 0.0, 0.0, 0.01)"
2019/09/05/07:27:28.601207,7183,1567636048,600664847,gx5_link,-0.135155200958,0.104024551809,0.777957320213,0.604726672173,"(0.01, 0.0, 0.0, 0.0, 0.01, 0.0, 0.0, 0.0, 0.01)",0.00535699818283,-0.0213079936802,-0.011489616707,"(0.01, 0.0, 0.0, 0.0, 0.01, 0.0, 0.0, 0.0, 0.01)",0.0103542266367,-3.2614766112,-9.26008106232,"(0.01, 0.0, 0.0, 0.0, 0.01, 0.0, 0.0, 0.0, 0.01)"
2019/09/05/07:27:28.619257,7184,1567636048,618725775,gx5_link,-0.135224491358,0.103957913816,0.777966976166,0.604710280895,"(0.01, 0.0, 0.0, 0.0, 0.01, 0.0, 0.0, 0.0, 0.01)",0.00476018339396,-0.020558251068,-0.00273924157955,"(0.01, 0.0, 0.0, 0.0, 0.01, 0.0, 0.0, 0.0, 0.01)",0.0382131257281,-3.24119495898,-9.24728384614,"(0.01, 0.0, 0.0, 0.0, 0.01, 0.0, 0.0, 0.0, 0.01)"
2019/09/05/07:27:28.631565,7185,1567636048,630608851,gx5_link,-0.135252952576,0.103956766427,0.777941048145,0.604737401009,"(0.01, 0.0, 0.0, 0.0, 0.01, 0.0, 0.0, 0.0, 0.01)",0.005814909935,-0.00918901525438,0.00505048967898,"(0.01, 0.0, 0.0, 0.0, 0.01, 0.0, 0.0, 0.0, 0.01)",0.110444264906,-3.25987739772,-9.22666539431,"(0.01, 0.0, 0.0, 0.0, 0.01, 0.0, 0.0, 0.0, 0.01)"
2019/09/05/07:27:28.648966,7186,1567636048,648587525,gx5_link,-0.13530986011,0.103977151215,0.777904391289,0.604768335819,"(0.01, 0.0, 0.0, 0.0, 0.01, 0.0, 0.0, 0.0, 0.01)",0.0108208619058,-0.009367573075,0.00649374257773,"(0.01, 0.0, 0.0, 0.0, 0.01, 0.0, 0.0, 0.0, 0.01)",0.141438262872,-3.28946840197,-9.23282426655,"(0.01, 0.0, 0.0, 0.0, 0.01, 0.0, 0.0, 0.0, 0.01)"
2019/09/05/07:27:28.661110,7187,1567636048,660594439,gx5_link,-0.135375544429,0.103978700936,0.777900993824,0.604757785797,"(0.01, 0.0, 0.0, 0.0, 0.01, 0.0, 0.0, 0.0, 0.01)",0.0090776514262,-0.0120427850634,0.00109886936843,"(0.01, 0.0, 0.0, 0.0, 0.01, 0.0, 0.0, 0.0, 0.01)",0.106698273607,-3.31729764014,-9.22569826484,"(0.01, 0.0, 0.0, 0.0, 0.01, 0.0, 0.0, 0.0, 0.01)"
2019/09/05/07:27:28.679029,7188,1567636048,678710049,gx5_link,-0.135417282581,0.103971645236,0.77792096138,0.604723870754,"(0.01, 0.0, 0.0, 0.0, 0.01, 0.0, 0.0, 0.0, 0.01)",0.00484264455736,-0.010072899051,-0.00390768842772,"(0.01, 0.0, 0.0, 0.0, 0.01, 0.0, 0.0, 0.0, 0.01)",0.0576261375099,-3.33246444046,-9.21792263746,"(0.01, 0.0, 0.0, 0.0, 0.01, 0.0, 0.0, 0.0, 0.01)"
2019/09/05/07:27:28.697022,7189,1567636048,696661138,gx5_link,-0.135479778051,0.103951573372,0.777946412563,0.604680657387,"(0.01, 0.0, 0.0, 0.0, 0.01, 0.0, 0.0, 0.0, 0.01)",0.00604109605774,-0.0112224863842,-0.00412673130631,"(0.01, 0.0, 0.0, 0.0, 0.01, 0.0, 0.0, 0.0, 0.01)",0.0110585191939,-3.33371106684,-9.21606556177,"(0.01, 0.0, 0.0, 0.0, 0.01, 0.0, 0.0, 0.0, 0.01)"
2019/09/05/07:27:28.708985,7190,1567636048,708656328,gx5_link,-0.135537087917,0.103936068714,0.777977406979,0.604630589485,"(0.01, 0.0, 0.0, 0.0, 0.01, 0.0, 0.0, 0.0, 0.01)",0.00568854855374,-0.00942669063807,-0.00500868959352,"(0.01, 0.0, 0.0, 0.0, 0.01, 0.0, 0.0, 0.0, 0.01)",-0.0225679546455,-3.33739773631,-9.22606313109,"(0.01, 0.0, 0.0, 0.0, 0.01, 0.0, 0.0, 0.0, 0.01)"
2019/09/05/07:27:28.727015,7191,1567636048,726695108,gx5_link,-0.135585308075,0.103908598423,0.778006613255,0.604586899281,"(0.01, 0.0, 0.0, 0.0, 0.01, 0.0, 0.0, 0.0, 0.01)",0.0036729585845,-0.0107880011201,-0.00553892878816,"(0.01, 0.0, 0.0, 0.0, 0.01, 0.0, 0.0, 0.0, 0.01)",-0.0239029196603,-3.3153142646,-9.22760562658,"(0.01, 0.0, 0.0, 0.0, 0.01, 0.0, 0.0, 0.0, 0.01)"
2019/09/05/07:27:28.739070,7192,1567636048,738649365,gx5_link,-0.135629013181,0.103893958032,0.778015911579,0.60456764698,"(0.01, 0.0, 0.0, 0.0, 0.01, 0.0, 0.0, 0.0, 0.01)",0.00522094964981,-0.00889483094215,-0.00113054923713,"(0.01, 0.0, 0.0, 0.0, 0.01, 0.0, 0.0, 0.0, 0.01)",0.0202486519888,-3.29536093354,-9.22118362963,"(0.01, 0.0, 0.0, 0.0, 0.01, 0.0, 0.0, 0.0, 0.01)"
2019/09/05/07:27:28.751045,7193,1567636048,750632218,gx5_link,-0.135657548904,0.103908076882,0.777993381023,0.60458779335,"(0.01, 0.0, 0.0, 0.0, 0.01, 0.0, 0.0, 0.0, 0.01)",0.0058515756391,-0.00391364470124,0.00597060052678,"(0.01, 0.0, 0.0, 0.0, 0.01, 0.0, 0.0, 0.0, 0.01)",0.0698682564916,-3.29576000601,-9.22720801592,"(0.01, 0.0, 0.0, 0.0, 0.01, 0.0, 0.0, 0.0, 0.01)"
2019/09/05/07:27:28.768939,7194,1567636048,768633890,gx5_link,-0.135666355491,0.103941686451,0.777951717377,0.604633808136,"(0.01, 0.0, 0.0, 0.0, 0.01, 0.0, 0.0, 0.0, 0.01)",0.00583045789972,0.0001924263197,0.00975981447846,"(0.01, 0.0, 0.0, 0.0, 0.01, 0.0, 0.0, 0.0, 0.01)",0.107758958526,-3.29371932775,-9.2300328058,"(0.01, 0.0, 0.0, 0.0, 0.01, 0.0, 0.0, 0.0, 0.01)"
2019/09/05/07:27:28.787294,7195,1567636048,786524185,gx5_link,-0.135671794415,0.103974156082,0.777939856052,0.604642152786,"(0.01, 0.0, 0.0, 0.0, 0.01, 0.0, 0.0, 0.0, 0.01)",0.00482230447233,0.000165903620655,0.00191894336604,"(0.01, 0.0, 0.0, 0.0, 0.01, 0.0, 0.0, 0.0, 0.01)",0.103328751633,-3.29298053205,-9.23114903927,"(0.01, 0.0, 0.0, 0.0, 0.01, 0.0, 0.0, 0.0, 0.01)"
2019/09/05/07:27:28.799508,7196,1567636048,798792573,gx5_link,-0.135673820972,0.103984393179,0.777962565422,0.604610621929,"(0.01, 0.0, 0.0, 0.0, 0.01, 0.0, 0.0, 0.0, 0.01)",0.00240380037576,-0.00363462558016,-0.00689536426216,"(0.01, 0.0, 0.0, 0.0, 0.01, 0.0, 0.0, 0.0, 0.01)",0.0794795943797,-3.29933587074,-9.23349435747,"(0.01, 0.0, 0.0, 0.0, 0.01, 0.0, 0.0, 0.0, 0.01)"
2019/09/05/07:27:28.816964,7197,1567636048,816594464,gx5_link,-0.135675981641,0.103973500431,0.778002023697,0.604561269283,"(0.01, 0.0, 0.0, 0.0, 0.01, 0.0, 0.0, 0.0, 0.01)",-0.0008538934635,-0.00392025196925,-0.00904811453074,"(0.01, 0.0, 0.0, 0.0, 0.01, 0.0, 0.0, 0.0, 0.01)",0.025114912705,-3.27932816058,-9.23890887916,"(0.01, 0.0, 0.0, 0.0, 0.01, 0.0, 0.0, 0.0, 0.01)"
2019/09/05/07:27:28.828883,7198,1567636048,828575980,gx5_link,-0.135684028268,0.103964880109,0.778031408787,0.604523122311,"(0.01, 0.0, 0.0, 0.0, 0.01, 0.0, 0.0, 0.0, 0.01)",0.00152968603652,-0.00267209066078,-0.00544298393652,"(0.01, 0.0, 0.0, 0.0, 0.01, 0.0, 0.0, 0.0, 0.01)",-0.0157318457763,-3.2674837482,-9.23821656883,"(0.01, 0.0, 0.0, 0.0, 0.01, 0.0, 0.0, 0.0, 0.01)"
2019/09/05/07:27:28.846981,7199,1567636048,846643058,gx5_link,-0.135681658983,0.103972651064,0.778036355972,0.604515969753,"(0.01, 0.0, 0.0, 0.0, 0.01, 0.0, 0.0, 0.0, 0.01)",0.00195778673515,0.000481371796923,-0.000524376460817,"(0.01, 0.0, 0.0, 0.0, 0.01, 0.0, 0.0, 0.0, 0.01)",0.000624169428775,-3.26301735252,-9.24252538204,"(0.01, 0.0, 0.0, 0.0, 0.01, 0.0, 0.0, 0.0, 0.01)"
2019/09/05/07:27:28.858936,7200,1567636048,858553494,gx5_link,-0.135679379106,0.103980228305,0.778021216393,0.604534685612,"(0.01, 0.0, 0.0, 0.0, 0.01, 0.0, 0.0, 0.0, 0.01)",0.00208024517633,-0.000454826280475,0.00341292447411,"(0.01, 0.0, 0.0, 0.0, 0.01, 0.0, 0.0, 0.0, 0.01)",0.0503226682311,-3.26079453349,-9.24282475948,"(0.01, 0.0, 0.0, 0.0, 0.01, 0.0, 0.0, 0.0, 0.01)"
